timestamp,AccX,AccY,AccZ
1622549394168,0.043095629662275314,-0.009576806798577309,
1622549394169,,,9.710882186889648
1622549394223,0.04668693244457245,-0.002394201699644327,9.68933391571045
1622549394300,0.05027823522686958,-0.013168109580874443,9.66299819946289
1622549394361,0.06224924325942993,-0.013168109580874443,9.623494148254395
1622549394430,0.05386953800916672,-0.014365210197865963,9.63187313079834
1622549394494,0.0454898327589035,-0.011971008032560349,9.649829864501953
1622549394564,0.04908113554120064,-0.010773907415568829,
1622549394565,,,9.68694019317627
1622549394628,0.04908113554120064,-0.0011971008498221636,9.72285270690918
1622549394697,0.04429273307323456,-0.013168109580874443,9.676166534423828
1622549394761,0.05267243832349777,-0.011971008032560349,
1622549394762,,,9.62828254699707
1622549394830,0.14006079733371735,-0.010773907415568829,9.627084732055664
1622549394897,-0.8846575021743774,0.7625532150268555,9.785101890563965
1622549394973,-0.13168109953403473,0.2406172752380371,
1622549394974,,,9.716867446899414
1622549395028,1.4257471561431885,-0.07781155407428741,9.707290649414062
1622549395095,-0.6165069341659546,0.22026655077934265,9.678560256958008
1622549395163,0.004788403399288654,0.009576806798577309,9.6989107131958
1622549395230,0.05746084079146385,-0.015562310814857483,9.636661529541016
1622549395288,0.05027823522686958,-0.011971008032560349,9.637859344482422
1622549395364,-0.4106055796146393,,
1622549395365,,-0.08619125932455063,9.605537414550781
1622549395431,0.12090718746185303,0.20949265360832214,9.732429504394531
1622549395503,-0.8655039072036743,0.23343466222286224,9.700108528137207
1622549395567,0.3974374830722809,0.2753331959247589,9.679757118225098
1622549395632,0.06224924325942993,,
1622549395633,,-0.02513911761343479,9.609128952026367
1622549395688,0.040701430290937424,,
1622549395689,,-0.002394201699644327,9.6618013381958
1622549395763,0.05027823522686958,-0.0011971008498221636,9.702502250671387
1622549395833,0.04189852997660637,-0.002394201699644327,9.691728591918945
1622549395899,0.05147533491253853,-0.002394201699644327,9.680954933166504
1622549395961,0.05746084079146385,0.0071826050989329815,9.657012939453125
1622549396028,0.05506663769483566,-0.014365210197865963,9.640253067016602
1622549396096,0.05267243832349777,,
1622549396099,,-0.010773907415568829,9.673771858215332
1622549396164,0.05147533491253853,,
1622549396165,,-0.021547814831137657,9.671378135681152
1622549396229,0.03950432687997818,-0.016759412363171577,9.695320129394531
1622549396296,0.04429273307323456,-0.009576806798577309,9.660603523254395
1622549396362,0.05985504388809204,-0.015562310814857483,9.606734275817871
1622549396430,0.040701430290937424,-0.019153613597154617,9.643844604492188
1622549396501,0.08499415963888168,-0.002394201699644327,
1622549396502,,,9.308655738830566
1622549396559,0.033518824726343155,-0.021547814831137657,9.668983459472656
1622549396620,0.03232172131538391,-0.013168109580874443,
1622549396621,,,9.716867446899414
1622549396698,0.04429273307323456,-0.010773907415568829,9.667786598205566
1622549396777,0.043095629662275314,-0.013168109580874443,9.645041465759277
1622549396834,0.04668693244457245,-0.0071826050989329815,9.611522674560547
1622549396892,0.05027823522686958,-0.009576806798577309,9.6618013381958
1622549396958,0.04668693244457245,-0.009576806798577309,9.690531730651855
1622549397035,0.05267243832349777,-0.014365210197865963,9.68574333190918
1622549397113,0.05027823522686958,,
1622549397114,,-0.004788403399288654,9.66299819946289
1622549397161,0.05027823522686958,-0.015562310814857483,
1622549397162,,,9.643844604492188
1622549397224,0.047884032130241394,-0.017956512048840523,9.635464668273926
1622549397294,0.05147533491253853,-0.02274491637945175,9.649829864501953
1622549397358,0.04189852997660637,,
1622549397359,,-0.010773907415568829,9.680954933166504
1622549397430,0.047884032130241394,-0.016759412363171577,9.690531730651855
1622549397494,0.047884032130241394,-0.004788403399288654,9.702502250671387
1622549397565,0.03711012750864029,-0.011971008032560349,9.66539192199707
1622549397626,0.05267243832349777,,
1622549397627,,-0.010773907415568829,9.610325813293457
1622549397694,0.06224924325942993,,
1622549397698,,-0.0071826050989329815,
1622549397699,,,9.63187313079834
1622549397763,0.038307227194309235,-0.014365210197865963,9.694122314453125
1622549397826,0.04189852997660637,0.004788403399288654,9.709685325622559
1622549397893,0.05626374110579491,,
1622549397894,,-0.0011971008498221636,9.657012939453125
1622549397960,0.05147533491253853,-0.016759412363171577,9.622296333312988
1622549398027,0.05147533491253853,,
1622549398028,,-0.011971008032560349,9.622296333312988
1622549398093,0.05626374110579491,,
1622549398094,,-0.010773907415568829,9.633070945739746
1622549398160,0.03950432687997818,-0.016759412363171577,9.666589736938477
1622549398225,0.05027823522686958,-0.008379706181585789,9.707290649414062
1622549398297,0.04189852997660637,-0.002394201699644327,9.68694019317627
1622549398366,0.03950432687997818,-0.009576806798577309,9.642647743225098
1622549398428,0.05506663769483566,-0.008379706181585789,9.616311073303223
1622549398494,0.04668693244457245,-0.016759412363171577,9.671378135681152
1622549398558,0.05267243832349777,-0.0071826050989329815,9.682151794433594
1622549398623,0.043095629662275314,-0.013168109580874443,9.671378135681152
1622549398699,0.04908113554120064,-0.008379706181585789,9.677363395690918
1622549398756,0.05386953800916672,-0.008379706181585789,9.641449928283691
1622549398827,0.061052143573760986,-0.02274491637945175,9.62828254699707
1622549398888,0.047884032130241394,-0.016759412363171577,9.639056205749512
1622549398959,0.0454898327589035,-0.008379706181585789,9.66539192199707
1622549399027,0.05027823522686958,-0.015562310814857483,9.670180320739746
1622549399094,0.043095629662275314,-0.0035913025494664907,9.667786598205566
1622549399157,0.0586579404771328,-0.010773907415568829,9.635464668273926
1622549399226,0.05386953800916672,-0.011971008032560349,9.618705749511719
1622549399293,0.0454898327589035,-0.023942016065120697,9.643844604492188
1622549399356,0.05027823522686958,-0.02274491637945175,9.684545516967773
1622549399426,0.043095629662275314,-0.02274491637945175,9.712079048156738
1622549399493,0.0347159244120121,-0.013168109580874443,9.676166534423828
1622549399558,0.05027823522686958,-0.009576806798577309,9.634267807006836
1622549399626,0.040701430290937424,-0.011971008032560349,9.624691009521484
1622549399696,0.043095629662275314,-0.015562310814857483,9.642647743225098
1622549399761,0.05027823522686958,-0.009576806798577309,9.66539192199707
1622549399828,0.04189852997660637,-0.02274491637945175,9.68813705444336
1622549399895,0.04908113554120064,-0.009576806798577309,9.66299819946289
1622549399960,0.05985504388809204,,
1622549399961,,-0.009576806798577309,9.605537414550781
1622549400028,0.047884032130241394,-0.02274491637945175,9.625887870788574
1622549400092,0.05506663769483566,-0.010773907415568829,9.618705749511719
1622549400157,0.04429273307323456,-0.016759412363171577,9.66299819946289
1622549400226,0.043095629662275314,-0.015562310814857483,9.676166534423828
1622549400293,0.047884032130241394,-0.009576806798577309,
1622549400294,,,9.658209800720215
1622549400356,0.05147533491253853,-0.011971008032560349,9.62828254699707
1622549400425,0.04189852997660637,-0.014365210197865963,9.605537414550781
1622549400492,0.05506663769483566,-0.015562310814857483,9.641449928283691
1622549400558,0.043095629662275314,-0.014365210197865963,9.684545516967773
1622549400625,0.04189852997660637,,
1622549400626,,-0.02753331884741783,9.655815124511719
1622549400691,0.04668693244457245,-0.013168109580874443,
1622549400692,,,9.623494148254395
1622549400760,0.05267243832349777,-0.005985504016280174,9.648633003234863
1622549400827,0.0454898327589035,-0.015562310814857483,9.63067626953125
1622549400890,0.05027823522686958,-0.010773907415568829,9.62947940826416
1622549400958,0.040701430290937424,-0.02513911761343479,9.666589736938477
1622549401027,0.03232172131538391,-0.020350715145468712,9.690531730651855
1622549401091,0.02992752194404602,,
1622549401092,,-0.008379706181585789,9.66539192199707
1622549401167,0.04429273307323456,-0.0071826050989329815,9.651026725769043
1622549401229,0.061052143573760986,0.002394201699644327,9.615114212036133
1622549401293,0.05267243832349777,-0.0011971008498221636,9.633070945739746
1622549401358,0.0454898327589035,-0.0011971008498221636,9.680954933166504
1622549401427,0.05267243832349777,-0.0035913025494664907,
1622549401428,,,9.692925453186035
1622549401493,0.04668693244457245,-0.019153613597154617,9.696516990661621
1622549401561,0.04668693244457245,0.0071826050989329815,9.655815124511719
1622549401628,0.05506663769483566,-0.013168109580874443,9.59835433959961
1622549401692,0.05506663769483566,-0.013168109580874443,9.640253067016602
1622549401760,0.04429273307323456,-0.010773907415568829,9.657012939453125
1622549401828,0.05147533491253853,-0.016759412363171577,9.683348655700684
1622549401892,0.04668693244457245,-0.016759412363171577,9.671378135681152
1622549401955,0.05626374110579491,-0.0035913025494664907,9.622296333312988
1622549402026,0.05506663769483566,-0.0035913025494664907,9.613917350769043
1622549402094,0.05386953800916672,-0.013168109580874443,9.674968719482422
1622549402158,0.04429273307323456,,
1622549402159,,-0.010773907415568829,9.690531730651855
1622549402223,0.0347159244120121,-0.011971008032560349,9.707290649414062
1622549402293,0.033518824726343155,-0.0011971008498221636,9.68574333190918
1622549402362,0.05985504388809204,0.014365210197865963,9.676166534423828
1622549402425,0.04908113554120064,0.0071826050989329815,9.617507934570312
1622549402491,0.04908113554120064,,
1622549402492,,0.015562310814857483,9.645041465759277
1622549402557,0.05506663769483566,,
1622549402558,,-0.014365210197865963,9.6618013381958
1622549402624,0.0347159244120121,-0.005985504016280174,9.707290649414062
1622549402691,0.035913024097681046,-0.005985504016280174,9.660603523254395
1622549402758,0.04908113554120064,,
1622549402759,,0.0071826050989329815,9.63187313079834
1622549402827,0.06344634294509888,,
1622549402828,,-0.002394201699644327,9.63067626953125
1622549402892,0.06344634294509888,-0.002394201699644327,9.653421401977539
1622549402956,0.0586579404771328,0.002394201699644327,9.65222454071045
1622549403028,0.04668693244457245,-0.020350715145468712,9.702502250671387
1622549403088,0.04668693244457245,0.002394201699644327,9.696516990661621
1622549403156,0.04908113554120064,-0.002394201699644327,9.66419506072998
1622549403224,0.05267243832349777,,
1622549403227,,-0.002394201699644327,9.634267807006836
1622549403289,0.0454898327589035,-0.0071826050989329815,9.641449928283691
1622549403357,0.05147533491253853,-0.009576806798577309,9.679757118225098
1622549403422,0.03950432687997818,-0.016759412363171577,9.703699111938477
1622549403489,0.05626374110579491,-0.0071826050989329815,
1622549403490,,,9.677363395690918
1622549403557,0.05506663769483566,-0.004788403399288654,9.634267807006836
1622549403625,0.061052143573760986,-0.0035913025494664907,9.625887870788574
1622549403691,0.05147533491253853,-0.03232172131538391,9.610325813293457
1622549403758,0.05027823522686958,-0.014365210197865963,9.68574333190918
1622549403824,0.04668693244457245,-0.009576806798577309,9.714473724365234
1622549403891,0.04189852997660637,-0.010773907415568829,9.678560256958008
1622549403958,0.05626374110579491,-0.011971008032560349,9.653421401977539
1622549404025,0.04908113554120064,-0.008379706181585789,9.621099472045898
1622549404090,0.06464344263076782,-0.019153613597154617,9.651026725769043
1622549404159,0.0454898327589035,-0.013168109580874443,9.716867446899414
1622549404224,0.047884032130241394,-0.014365210197865963,9.702502250671387
1622549404290,0.04668693244457245,-0.011971008032560349,9.694122314453125
1622549404359,0.04429273307323456,-0.016759412363171577,9.653421401977539
1622549404425,0.05267243832349777,-0.011971008032560349,
1622549404426,,,9.637859344482422
1622549404488,0.05985504388809204,-0.019153613597154617,9.646238327026367
1622549404557,0.040701430290937424,-0.017956512048840523,9.694122314453125
1622549404622,0.05267243832349777,-0.013168109580874443,
1622549404623,,,9.706093788146973
1622549404691,0.05147533491253853,-0.013168109580874443,9.677363395690918
1622549404754,0.05267243832349777,-0.0071826050989329815,9.666589736938477
1622549404820,0.05147533491253853,-0.016759412363171577,
1622549404821,,,9.62947940826416
1622549404889,0.0586579404771328,-0.017956512048840523,9.66419506072998
1622549404954,0.04908113554120064,-0.016759412363171577,9.697713851928711
1622549405024,0.05626374110579491,-0.014365210197865963,9.704896926879883
1622549405090,0.05027823522686958,-0.019153613597154617,9.718064308166504
1622549405157,0.05147533491253853,-0.015562310814857483,9.648633003234863
1622549405223,0.05147533491253853,,
1622549405224,,-0.008379706181585789,
1622549405290,0.04668693244457245,-0.02274491637945175,9.676166534423828
1622549405357,0.04908113554120064,-0.014365210197865963,9.679757118225098
1622549405423,0.05027823522686958,-0.019153613597154617,
1622549405426,,,9.71926212310791
1622549405490,0.040701430290937424,-0.014365210197865963,9.68933391571045
1622549405554,0.05147533491253853,-0.015562310814857483,9.637859344482422
1622549405623,0.05626374110579491,,
1622549405624,,-0.008379706181585789,9.621099472045898
1622549405689,0.04908113554120064,-0.023942016065120697,9.62828254699707
1622549405757,0.04668693244457245,-0.013168109580874443,9.676166534423828
1622549405823,0.05027823522686958,-0.005985504016280174,9.727641105651855
1622549405890,0.033518824726343155,,
1622549405891,,-0.011971008032560349,9.703699111938477
1622549405956,0.05386953800916672,-0.005985504016280174,
1622549405957,,,9.667786598205566
1622549406023,0.05147533491253853,,
1622549406024,,-0.013168109580874443,9.634267807006836
1622549406090,0.040701430290937424,-0.014365210197865963,9.655815124511719
1622549406156,0.04668693244457245,-0.0071826050989329815,9.709685325622559
1622549406222,0.038307227194309235,-0.014365210197865963,9.713275909423828
1622549406290,0.038307227194309235,-0.004788403399288654,9.677363395690918
1622549406356,0.05985504388809204,-0.0071826050989329815,9.648633003234863
1622549406423,0.04668693244457245,-0.016759412363171577,9.660603523254395
1622549406489,0.05386953800916672,,
1622549406490,,-0.019153613597154617,9.651026725769043
1622549406556,0.05267243832349777,-0.009576806798577309,9.679757118225098
1622549406622,0.03711012750864029,-0.005985504016280174,9.730035781860352
1622549406689,0.040701430290937424,,
1622549406690,,-0.020350715145468712,9.68813705444336
1622549406755,0.05746084079146385,-0.013168109580874443,
1622549406756,,,9.6618013381958
1622549406824,0.04908113554120064,-0.005985504016280174,9.653421401977539
1622549406889,0.04908113554120064,-0.010773907415568829,9.66539192199707
1622549406956,0.05746084079146385,-0.0035913025494664907,9.694122314453125
1622549407022,0.0454898327589035,,
1622549407023,,0.0011971008498221636,9.725247383117676
1622549407089,0.043095629662275314,-0.002394201699644327,9.720458984375
1622549407155,0.05746084079146385,-0.009576806798577309,9.677363395690918
1622549407222,0.05267243832349777,-0.011971008032560349,9.649829864501953
1622549407288,0.0586579404771328,-0.019153613597154617,9.667786598205566
1622549407357,0.06823474913835526,-0.031124621629714966,9.599552154541016
1622549407423,0.03950432687997818,-0.019153613597154617,9.672574996948242
1622549407489,0.0454898327589035,0.0011971008498221636,9.743204116821289
1622549407554,0.06584054976701736,-0.0071826050989329815,9.640253067016602
1622549407623,0.0586579404771328,-0.015562310814857483,9.649829864501953
1622549407691,0.05267243832349777,-0.023942016065120697,9.668983459472656
1622549407755,0.047884032130241394,,
1622549407756,,-0.019153613597154617,9.66299819946289
1622549407822,0.043095629662275314,-0.013168109580874443,9.733627319335938
1622549407888,0.05027823522686958,-0.0071826050989329815,
1622549407889,,,9.706093788146973
1622549407956,0.05027823522686958,-0.015562310814857483,9.668983459472656
1622549408023,0.04908113554120064,-0.017956512048840523,9.623494148254395
1622549408089,0.06464344263076782,-0.020350715145468712,9.635464668273926
1622549408155,0.04668693244457245,-0.015562310814857483,9.703699111938477
1622549408224,0.05386953800916672,,
1622549408225,,-0.0071826050989329815,9.718064308166504
1622549408288,0.05626374110579491,-0.008379706181585789,9.68574333190918
1622549408355,0.05506663769483566,-0.011971008032560349,9.679757118225098
1622549408422,0.06224924325942993,-0.016759412363171577,
1622549408423,,,9.649829864501953
1622549408503,0.04429273307323456,,
1622549408504,,-0.004788403399288654,9.658209800720215
1622549408570,0.05147533491253853,-0.019153613597154617,9.680954933166504
1622549408635,0.05147533491253853,-0.002394201699644327,9.726444244384766
1622549408706,0.0454898327589035,-0.005985504016280174,9.731232643127441
1622549408754,0.043095629662275314,-0.0035913025494664907,9.683348655700684
1622549408836,0.05626374110579491,,
1622549408837,,-0.009576806798577309,9.66299819946289
1622549408903,0.05746084079146385,-0.019153613597154617,
1622549408904,,,9.66539192199707
1622549408967,0.04668693244457245,-0.014365210197865963,9.692925453186035
1622549409036,0.04908113554120064,,
1622549409037,,-0.002394201699644327,9.730035781860352
1622549409087,0.05027823522686958,-0.013168109580874443,9.6989107131958
1622549409154,0.05626374110579491,-0.005985504016280174,9.68813705444336
1622549409222,0.05147533491253853,-0.014365210197865963,9.66539192199707
1622549409288,0.05386953800916672,,
1622549409289,,-0.013168109580874443,9.640253067016602
1622549409355,0.047884032130241394,-0.020350715145468712,9.695320129394531
1622549409421,0.04908113554120064,-0.009576806798577309,9.725247383117676
1622549409504,0.05386953800916672,-0.015562310814857483,9.706093788146973
1622549409556,0.0586579404771328,-0.009576806798577309,9.66299819946289
1622549409637,0.061052143573760986,,
1622549409638,,-0.013168109580874443,9.643844604492188
1622549409704,0.043095629662275314,-0.019153613597154617,9.653421401977539
1622549409756,0.05147533491253853,-0.015562310814857483,
1622549409757,,,9.72165584564209
1622549409837,0.047884032130241394,,
1622549409838,,-0.004788403399288654,9.739612579345703
1622549409904,0.04668693244457245,-0.005985504016280174,9.714473724365234
1622549409955,0.061052143573760986,-0.011971008032560349,9.68933391571045
1622549410037,0.05386953800916672,,
1622549410038,,-0.017956512048840523,9.655815124511719
1622549410101,0.05746084079146385,-0.010773907415568829,9.655815124511719
1622549410169,0.05267243832349777,-0.013168109580874443,9.692925453186035
1622549410233,0.04668693244457245,,
1622549410234,,-0.015562310814857483,9.734824180603027
1622549410304,0.040701430290937424,-0.0035913025494664907,9.710882186889648
1622549410370,0.06224924325942993,-0.0071826050989329815,9.648633003234863
1622549410436,0.05267243832349777,-0.017956512048840523,
1622549410437,,,9.658209800720215
1622549410504,0.047884032130241394,-0.014365210197865963,9.657012939453125
1622549410569,0.05147533491253853,-0.005985504016280174,9.704896926879883
1622549410634,0.04908113554120064,-0.019153613597154617,9.6989107131958
1622549410688,0.047884032130241394,-0.004788403399288654,9.720458984375
1622549410769,0.047884032130241394,,
1622549410772,,-0.0071826050989329815,9.704896926879883
1622549410836,0.05027823522686958,-0.017956512048840523,9.646238327026367
1622549410888,0.06464344263076782,-0.010773907415568829,9.634267807006836
1622549410969,0.047884032130241394,-0.011971008032560349,9.706093788146973
1622549411037,0.0347159244120121,-0.009576806798577309,9.726444244384766
1622549411103,0.05386953800916672,-0.002394201699644327,9.712079048156738
1622549411154,0.06344634294509888,-0.008379706181585789,
1622549411155,,,9.684545516967773
1622549411236,0.03950432687997818,-0.010773907415568829,9.643844604492188
1622549411303,0.06584054976701736,0.0011971008498221636,
1622549411304,,,9.684545516967773
1622549411371,0.04429273307323456,-0.014365210197865963,9.691728591918945
1622549411421,0.05147533491253853,-0.016759412363171577,9.714473724365234
1622549411503,0.047884032130241394,-0.0011971008498221636,9.720458984375
1622549411556,0.05147533491253853,-0.015562310814857483,9.654618263244629
1622549411635,0.05147533491253853,-0.016759412363171577,9.640253067016602
1622549411703,0.05147533491253853,-0.0035913025494664907,9.671378135681152
1622549411770,0.05626374110579491,-0.02753331884741783,9.6618013381958
1622549411836,0.05746084079146385,-0.0011971008498221636,9.712079048156738
1622549411903,0.0454898327589035,0.004788403399288654,9.730035781860352
1622549411971,0.05626374110579491,-0.004788403399288654,9.651026725769043
1622549412036,0.05746084079146385,-0.010773907415568829,9.66539192199707
1622549412102,0.05027823522686958,,
1622549412103,,-0.008379706181585789,9.673771858215332
1622549412169,0.04189852997660637,-0.016759412363171577,9.695320129394531
1622549412236,0.05027823522686958,-0.016759412363171577,9.720458984375
1622549412302,0.040701430290937424,-0.010773907415568829,
1622549412303,,,9.706093788146973
1622549412369,0.0454898327589035,-0.010773907415568829,9.706093788146973
1622549412435,0.0586579404771328,,
1622549412436,,-0.0071826050989329815,9.655815124511719
1622549412502,0.04908113554120064,-0.011971008032560349,9.677363395690918
1622549412569,0.05386953800916672,-0.017956512048840523,9.704896926879883
1622549412636,0.05386953800916672,-0.0035913025494664907,
1622549412637,,,9.716867446899414
1622549412702,0.02992752194404602,-0.011971008032560349,9.734824180603027
1622549412756,0.05147533491253853,-0.002394201699644327,9.68694019317627
1622549412835,0.05506663769483566,-0.009576806798577309,9.671378135681152
1622549412902,0.05626374110579491,-0.021547814831137657,9.649829864501953
1622549412970,0.05985504388809204,-0.005985504016280174,9.697713851928711
1622549413036,0.0454898327589035,-0.0011971008498221636,9.72285270690918
1622549413102,0.03711012750864029,-0.008379706181585789,9.710882186889648
1622549413170,0.05506663769483566,,
1622549413171,,-0.002394201699644327,9.667786598205566
1622549413235,0.05147533491253853,-0.004788403399288654,9.672574996948242
1622549413301,0.02992752194404602,,
1622549413304,,-0.02274491637945175,9.66419506072998
1622549413368,0.06584054976701736,-0.017956512048840523,9.672574996948242
1622549413435,0.04189852997660637,-0.010773907415568829,9.732429504394531
1622549413500,0.03950432687997818,-0.010773907415568829,
1622549413501,,,9.708487510681152
1622549413567,0.0694318488240242,,
1622549413568,,-0.0011971008498221636,9.700108528137207
1622549413635,0.06344634294509888,-0.009576806798577309,9.677363395690918
1622549413698,0.038307227194309235,-0.009576806798577309,9.677363395690918
1622549413768,0.06224924325942993,0.0035913025494664907,9.709685325622559
1622549413834,0.040701430290937424,-0.0071826050989329815,9.740809440612793
1622549413902,0.0454898327589035,-0.0035913025494664907,9.701305389404297
1622549413966,0.06464344263076782,-0.0035913025494664907,9.670180320739746
1622549414031,0.05386953800916672,-0.014365210197865963,
1622549414032,,,9.659406661987305
1622549414101,0.061052143573760986,-0.0011971008498221636,9.657012939453125
1622549414165,0.06344634294509888,-0.014365210197865963,9.683348655700684
1622549414233,0.03950432687997818,-0.013168109580874443,9.706093788146973
1622549414299,0.05027823522686958,,
1622549414300,,0.008379706181585789,9.701305389404297
1622549414363,0.05985504388809204,-0.0011971008498221636,9.709685325622559
1622549414433,0.05386953800916672,-0.010773907415568829,9.649829864501953
1622549414497,0.061052143573760986,-0.0071826050989329815,9.636661529541016
1622549414566,0.043095629662275314,-0.02274491637945175,9.695320129394531
1622549414629,0.040701430290937424,,
1622549414630,,-0.004788403399288654,9.730035781860352
1622549414700,0.05746084079146385,,
1622549414701,,0.0035913025494664907,9.701305389404297
1622549414764,0.04429273307323456,-0.016759412363171577,9.667786598205566
1622549414833,0.04908113554120064,-0.0071826050989329815,9.655815124511719
1622549414897,0.0694318488240242,-0.004788403399288654,9.651026725769043
1622549414967,0.038307227194309235,-0.03232172131538391,9.694122314453125
1622549415030,0.05386953800916672,-0.008379706181585789,9.726444244384766
1622549415101,0.05746084079146385,0.008379706181585789,9.733627319335938
1622549415162,0.05147533491253853,-0.010773907415568829,9.692925453186035
1622549415235,0.04668693244457245,-0.002394201699644327,9.637859344482422
1622549415294,0.0586579404771328,-0.013168109580874443,9.648633003234863
1622549415368,0.038307227194309235,-0.019153613597154617,9.701305389404297
1622549415429,0.043095629662275314,-0.008379706181585789,9.72165584564209
1622549415500,0.03711012750864029,-0.0035913025494664907,9.736021041870117
1622549415565,0.04908113554120064,-0.004788403399288654,
1622549415566,,,9.695320129394531
1622549415621,0.05027823522686958,0.0035913025494664907,
1622549415622,,,9.646238327026367
1622549415699,0.05746084079146385,-0.019153613597154617,9.647436141967773
1622549415761,0.04668693244457245,-0.017956512048840523,9.668983459472656
1622549415832,0.04908113554120064,-0.019153613597154617,9.703699111938477
1622549415895,0.047884032130241394,-0.0071826050989329815,9.72285270690918
1622549415965,0.047884032130241394,-0.017956512048840523,
1622549415966,,,9.692925453186035
1622549416026,0.0586579404771328,,
1622549416027,,-0.0071826050989329815,9.645041465759277
1622549416099,0.05267243832349777,-0.014365210197865963,9.655815124511719
1622549416166,0.05027823522686958,-0.009576806798577309,9.649829864501953
1622549416231,0.047884032130241394,-0.013168109580874443,
1622549416232,,,9.715670585632324
1622549416298,0.031124621629714966,-0.011971008032560349,9.718064308166504
1622549416355,0.04189852997660637,,
1622549416356,,-0.004788403399288654,
1622549416430,0.05746084079146385,,
1622549416431,,-0.004788403399288654,9.66539192199707
1622549416488,0.04189852997660637,-0.020350715145468712,9.659406661987305
1622549416564,0.05027823522686958,,
1622549416565,,-0.009576806798577309,9.668983459472656
1622549416632,0.0586579404771328,0.0011971008498221636,9.714473724365234
1622549416698,0.04429273307323456,-0.013168109580874443,9.702502250671387
1622549416764,0.04908113554120064,-0.008379706181585789,9.676166534423828
1622549416830,0.05506663769483566,,
1622549416831,,-0.0071826050989329815,9.658209800720215
1622549416898,0.04668693244457245,-0.010773907415568829,9.635464668273926
1622549416964,0.07182604819536209,-0.009576806798577309,9.66299819946289
1622549417031,0.04908113554120064,,
1622549417032,,-0.010773907415568829,9.715670585632324
1622549417098,0.043095629662275314,-0.013168109580874443,
1622549417099,,,9.725247383117676
1622549417164,0.05746084079146385,-0.008379706181585789,9.672574996948242
1622549417231,0.0586579404771328,-0.020350715145468712,9.651026725769043
1622549417298,0.05147533491253853,-0.014365210197865963,9.642647743225098
1622549417364,0.06224924325942993,-0.0071826050989329815,9.691728591918945
1622549417435,0.05267243832349777,-0.002394201699644327,9.734824180603027
1622549417497,0.043095629662275314,-0.010773907415568829,9.724050521850586
1622549417564,0.061052143573760986,-0.0035913025494664907,9.673771858215332
1622549417631,0.047884032130241394,-0.008379706181585789,9.6618013381958
1622549417698,0.06224924325942993,-0.011971008032560349,9.641449928283691
1622549417764,0.05626374110579491,-0.0011971008498221636,9.68694019317627
1622549417830,0.05027823522686958,-0.016759412363171577,9.72285270690918
1622549417897,0.0454898327589035,-0.008379706181585789,9.724050521850586
1622549417963,0.06464344263076782,,
1622549417964,,-0.0071826050989329815,9.679757118225098
1622549418030,0.05626374110579491,-0.023942016065120697,9.648633003234863
1622549418097,0.05985504388809204,,
1622549418098,,-0.0011971008498221636,9.655815124511719
1622549418163,0.0586579404771328,-0.004788403399288654,9.704896926879883
1622549418229,0.03232172131538391,,
1622549418230,,-0.015562310814857483,9.714473724365234
1622549418296,0.05027823522686958,,
1622549418297,,-0.005985504016280174,9.708487510681152
1622549418364,0.04429273307323456,-0.005985504016280174,9.715670585632324
1622549418429,0.05386953800916672,,
1622549418430,,-0.013168109580874443,9.653421401977539
1622549418496,0.061052143573760986,-0.004788403399288654,
1622549418497,,,9.659406661987305
1622549418566,0.04429273307323456,-0.011971008032560349,9.683348655700684
1622549418630,0.040701430290937424,-0.02274491637945175,9.724050521850586
1622549418696,0.047884032130241394,,
1622549418697,,0.0011971008498221636,9.740809440612793
1622549418762,0.05027823522686958,,
1622549418763,,-0.002394201699644327,9.691728591918945
1622549418828,0.04908113554120064,,
1622549418829,,-0.019153613597154617,9.642647743225098
1622549418893,0.07062894850969315,,
1622549418894,,0.0011971008498221636,9.66419506072998
1622549418962,0.05267243832349777,-0.028730420395731926,9.720458984375
1622549419024,0.05147533491253853,-0.009576806798577309,9.708487510681152
1622549419096,0.05386953800916672,-0.010773907415568829,9.744400978088379
1622549419161,0.04189852997660637,,
1622549419162,,-0.010773907415568829,9.700108528137207
1622549419229,0.06344634294509888,0.0035913025494664907,9.654618263244629
1622549419296,0.04908113554120064,-0.009576806798577309,9.737217903137207
1622549419362,0.043095629662275314,-0.0035913025494664907,9.696516990661621
1622549419429,0.05746084079146385,-0.010773907415568829,9.743204116821289
1622549419500,0.04668693244457245,-0.0011971008498221636,9.733627319335938
1622549419563,0.04908113554120064,-0.011971008032560349,9.659406661987305
1622549419629,0.06344634294509888,-0.009576806798577309,9.655815124511719
1622549419694,0.0347159244120121,-0.014365210197865963,9.6618013381958
1622549419764,0.04908113554120064,-0.011971008032560349,
1622549419765,,,9.673771858215332
1622549419828,0.05027823522686958,0.002394201699644327,9.747992515563965
1622549419895,0.0454898327589035,-0.011971008032560349,
1622549419896,,,9.702502250671387
1622549419963,0.03711012750864029,-0.008379706181585789,9.667786598205566
1622549420028,0.05626374110579491,0.0035913025494664907,9.672574996948242
1622549420098,0.0454898327589035,-0.017956512048840523,9.678560256958008
1622549420160,0.05147533491253853,-0.021547814831137657,9.6989107131958
1622549420229,0.05386953800916672,0.004788403399288654,9.727641105651855
1622549420297,0.035913024097681046,,
1622549420298,,-0.0071826050989329815,9.724050521850586
1622549420362,0.05626374110579491,-0.005985504016280174,9.732429504394531
1622549420428,0.0586579404771328,,
1622549420429,,-0.010773907415568829,9.696516990661621
1622549420495,0.03950432687997818,-0.016759412363171577,9.660603523254395
1622549420565,0.06584054976701736,,
1622549420566,,-0.009576806798577309,9.68694019317627
1622549420628,0.0454898327589035,-0.005985504016280174,9.724050521850586
1622549420695,0.033518824726343155,-0.013168109580874443,9.725247383117676
1622549420761,0.04908113554120064,,
1622549420762,,0.005985504016280174,9.690531730651855
1622549420828,0.05985504388809204,-0.015562310814857483,9.660603523254395
1622549420894,0.047884032130241394,-0.004788403399288654,9.660603523254395
1622549420963,0.05267243832349777,-0.013168109580874443,9.703699111938477
1622549421028,0.04668693244457245,-0.008379706181585789,9.740809440612793
1622549421098,0.05027823522686958,-0.0011971008498221636,9.720458984375
1622549421158,0.05506663769483566,,
1622549421159,,0.004788403399288654,9.72165584564209
1622549421228,0.03950432687997818,,
1622549421229,,-0.009576806798577309,9.678560256958008
1622549421293,0.05746084079146385,0.002394201699644327,9.653421401977539
1622549421364,0.06224924325942993,-0.014365210197865963,9.692925453186035
1622549421425,0.035913024097681046,-0.011971008032560349,9.740809440612793
1622549421496,0.061052143573760986,-0.005985504016280174,9.727641105651855
1622549421558,0.06224924325942993,-0.002394201699644327,9.691728591918945
1622549421631,0.047884032130241394,-0.009576806798577309,9.653421401977539
1622549421692,0.05386953800916672,-0.011971008032560349,9.658209800720215
1622549421761,0.05267243832349777,-0.002394201699644327,9.709685325622559
1622549421828,0.04908113554120064,,
1622549421829,,-0.010773907415568829,9.709685325622559
1622549421894,0.05626374110579491,-0.010773907415568829,9.728838920593262
1622549421963,0.05267243832349777,-0.0071826050989329815,9.708487510681152
1622549422029,0.04189852997660637,-0.009576806798577309,9.672574996948242
1622549422093,0.06823474913835526,-0.0011971008498221636,
1622549422094,,,9.660603523254395
1622549422162,0.05267243832349777,-0.017956512048840523,9.679757118225098
1622549422227,0.0454898327589035,-0.014365210197865963,
1622549422228,,,9.708487510681152
1622549422299,0.05027823522686958,0.0011971008498221636,9.732429504394531
1622549422358,0.06703764945268631,-0.004788403399288654,9.697713851928711
1622549422440,0.04668693244457245,,
1622549422441,,-0.019153613597154617,9.653421401977539
1622549422487,0.05626374110579491,,
1622549422488,,-0.0011971008498221636,9.66419506072998
1622549422554,0.0454898327589035,,
1622549422555,,-0.015562310814857483,9.683348655700684
1622549422621,0.05386953800916672,,
1622549422622,,-0.019153613597154617,9.72165584564209
1622549422688,0.05027823522686958,-0.016759412363171577,9.730035781860352
1622549422755,0.03232172131538391,0.0011971008498221636,9.71926212310791
1622549422821,0.05506663769483566,,
1622549422822,,-0.0035913025494664907,9.65222454071045
1622549422888,0.06224924325942993,-0.008379706181585789,
1622549422889,,,9.657012939453125
1622549422954,0.03711012750864029,-0.002394201699644327,
1622549422956,,,9.781511306762695
1622549423021,0.05386953800916672,-0.008379706181585789,
1622549423022,,,9.747992515563965
1622549423088,0.06344634294509888,-0.004788403399288654,9.677363395690918
1622549423155,0.04668693244457245,-0.008379706181585789,9.697713851928711
1622549423221,0.05626374110579491,,
1622549423223,,0.005985504016280174,9.695320129394531
1622549423288,0.05267243832349777,-0.020350715145468712,9.657012939453125
1622549423355,0.05027823522686958,-0.020350715145468712,9.674968719482422
1622549423421,0.0586579404771328,-0.0035913025494664907,9.728838920593262
1622549423488,0.0454898327589035,-0.021547814831137657,9.749189376831055
1622549423554,0.038307227194309235,,
1622549423555,,-0.008379706181585789,9.68694019317627
1622549423620,0.061052143573760986,,
1622549423621,,0.004788403399288654,9.655815124511719
1622549423688,0.05147533491253853,-0.017956512048840523,9.668983459472656
1622549423754,0.05027823522686958,-0.011971008032560349,9.691728591918945
1622549423821,0.061052143573760986,-0.004788403399288654,
1622549423822,,,9.750386238098145
1622549423887,0.043095629662275314,-0.014365210197865963,9.739612579345703
1622549423954,0.05386953800916672,-0.004788403399288654,9.718064308166504
1622549424021,0.05746084079146385,-0.008379706181585789,9.694122314453125
1622549424087,0.047884032130241394,,
1622549424088,,-0.009576806798577309,9.660603523254395
1622549424154,0.06344634294509888,-0.010773907415568829,9.674968719482422
1622549424221,0.05626374110579491,-0.015562310814857483,9.715670585632324
1622549424288,0.04429273307323456,-0.014365210197865963,9.745597839355469
1622549424356,0.04908113554120064,-0.0011971008498221636,9.703699111938477
1622549424422,0.05267243832349777,-0.004788403399288654,9.671378135681152
1622549424488,0.047884032130241394,-0.019153613597154617,9.6618013381958
1622549424554,0.0694318488240242,,
1622549424557,,-0.005985504016280174,9.704896926879883
1622549424622,0.040701430290937424,-0.014365210197865963,9.706093788146973
1622549424688,0.04668693244457245,-0.011971008032560349,9.72165584564209
1622549424755,0.05506663769483566,0.002394201699644327,9.725247383117676
1622549424821,0.05386953800916672,-0.015562310814857483,9.68694019317627
1622549424888,0.05386953800916672,-0.013168109580874443,9.654618263244629
1622549424954,0.06224924325942993,-0.009576806798577309,9.6989107131958
1622549425020,0.03711012750864029,,
1622549425021,,-0.013168109580874443,9.75278091430664
1622549425088,0.0454898327589035,-0.016759412363171577,9.730035781860352
1622549425154,0.05386953800916672,-0.008379706181585789,9.690531730651855
1622549425221,0.043095629662275314,-0.011971008032560349,9.66539192199707
1622549425287,0.05147533491253853,-0.005985504016280174,9.654618263244629
1622549425354,0.05027823522686958,-0.02274491637945175,9.690531730651855
1622549425421,0.0347159244120121,-0.004788403399288654,9.724050521850586
1622549425487,0.04908113554120064,-0.0071826050989329815,
1622549425488,,,9.733627319335938
1622549425554,0.05626374110579491,,
1622549425555,,-0.0071826050989329815,9.704896926879883
1622549425621,0.04668693244457245,-0.014365210197865963,9.66539192199707
1622549425688,0.05506663769483566,-0.004788403399288654,9.671378135681152
1622549425754,0.05147533491253853,-0.020350715145468712,9.6989107131958
1622549425821,0.03232172131538391,,
1622549425822,,-0.020350715145468712,9.725247383117676
1622549425888,0.047884032130241394,0.0011971008498221636,9.734824180603027
1622549425955,0.06344634294509888,0.0011971008498221636,9.695320129394531
1622549426021,0.05027823522686958,-0.015562310814857483,9.670180320739746
1622549426087,0.05985504388809204,,
1622549426088,,-0.008379706181585789,9.649829864501953
1622549426155,0.0454898327589035,-0.014365210197865963,9.68694019317627
1622549426221,0.0454898327589035,-0.009576806798577309,9.720458984375
1622549426287,0.047884032130241394,,
1622549426288,,-0.005985504016280174,9.732429504394531
1622549426354,0.04908113554120064,,
1622549426355,,0.0011971008498221636,9.727641105651855
1622549426421,0.05626374110579491,-0.010773907415568829,9.670180320739746
1622549426488,0.06584054976701736,-0.010773907415568829,9.654618263244629
1622549426554,0.0454898327589035,-0.009576806798577309,9.683348655700684
1622549426621,0.043095629662275314,-0.016759412363171577,
1622549426622,,,9.745597839355469
1622549426688,0.043095629662275314,-0.005985504016280174,9.75517463684082
1622549426754,0.04908113554120064,-0.013168109580874443,9.710882186889648
1622549426821,0.05985504388809204,,
1622549426822,,-0.002394201699644327,9.691728591918945
1622549426888,0.05985504388809204,0.002394201699644327,9.657012939453125
1622549426954,0.05626374110579491,,
1622549426955,,-0.019153613597154617,9.680954933166504
1622549427021,0.047884032130241394,-0.013168109580874443,9.725247383117676
1622549427087,0.04668693244457245,,
1622549427088,,-0.009576806798577309,9.736021041870117
1622549427154,0.04429273307323456,,
1622549427155,,-0.02274491637945175,9.696516990661621
1622549427221,0.05267243832349777,-0.013168109580874443,9.666589736938477
1622549427287,0.047884032130241394,,
1622549427288,,-0.013168109580874443,9.68574333190918
1622549427354,0.040701430290937424,,
1622549427355,,-0.014365210197865963,9.710882186889648
1622549427421,0.05746084079146385,-0.005985504016280174,9.713275909423828
1622549427488,0.0347159244120121,-0.009576806798577309,
1622549427554,0.043095629662275314,,
1622549427555,,-0.008379706181585789,9.725247383117676
1622549427621,0.05147533491253853,-0.0071826050989329815,9.668983459472656
1622549427688,0.05027823522686958,-0.013168109580874443,9.667786598205566
1622549427754,0.043095629662275314,,
1622549427755,,-0.017956512048840523,9.706093788146973
1622549427821,0.04429273307323456,,
1622549427822,,-0.008379706181585789,9.728838920593262
1622549427887,0.035913024097681046,,
1622549427888,,-0.019153613597154617,9.730035781860352
1622549427954,0.04189852997660637,-0.005985504016280174,
1622549427955,,,9.680954933166504
1622549428021,0.05506663769483566,-0.011971008032560349,9.676166534423828
1622549428088,0.05746084079146385,-0.011971008032560349,9.670180320739746
1622549428154,0.05506663769483566,,
1622549428155,,-0.009576806798577309,9.671378135681152
1622549428221,0.05506663769483566,-0.019153613597154617,9.710882186889648
1622549428288,0.04908113554120064,-0.019153613597154617,9.726444244384766
1622549428354,0.05027823522686958,0.0035913025494664907,9.710882186889648
1622549428421,0.061052143573760986,,
1622549428422,,0.0011971008498221636,9.676166534423828
1622549428488,0.0586579404771328,-0.020350715145468712,9.646238327026367
1622549428554,0.05267243832349777,-0.0071826050989329815,9.690531730651855
1622549428621,0.04429273307323456,-0.005985504016280174,9.75278091430664
1622549428688,0.04908113554120064,-0.0011971008498221636,9.733627319335938
1622549428755,0.05386953800916672,-0.0011971008498221636,9.691728591918945
1622549428821,0.05027823522686958,,
1622549428822,,-0.008379706181585789,9.678560256958008
1622549428887,0.05985504388809204,,
1622549428888,,-0.009576806798577309,9.670180320739746
1622549428954,0.05386953800916672,,
1622549428955,,-0.009576806798577309,9.68813705444336
1622549429021,0.04429273307323456,-0.020350715145468712,9.728838920593262
1622549429087,0.04668693244457245,,
1622549429088,,-0.013168109580874443,9.749189376831055
1622549429154,0.05506663769483566,,
1622549429155,,-0.005985504016280174,9.720458984375
1622549429221,0.05746084079146385,-0.0035913025494664907,9.655815124511719
1622549429287,0.05985504388809204,,
1622549429288,,-0.014365210197865963,9.670180320739746
1622549429354,0.05267243832349777,-0.026336219161748886,9.712079048156738
1622549429421,0.043095629662275314,,
1622549429422,,-0.009576806798577309,
1622549429423,,,9.714473724365234
1622549429488,0.04189852997660637,0.0011971008498221636,9.745597839355469
1622549429555,0.04189852997660637,-0.009576806798577309,9.740809440612793
1622549429621,0.04908113554120064,-0.015562310814857483,9.676166534423828
1622549429688,0.05267243832349777,-0.015562310814857483,9.66299819946289
1622549429754,0.05147533491253853,-0.0071826050989329815,9.694122314453125
1622549429821,0.04668693244457245,,
1622549429822,,-0.013168109580874443,9.718064308166504
1622549429888,0.03950432687997818,-0.009576806798577309,9.749189376831055
1622549429954,0.040701430290937424,,
1622549429955,,-0.0071826050989329815,9.716867446899414
1622549430021,0.04908113554120064,-0.014365210197865963,9.674968719482422
1622549430088,0.06464344263076782,,
1622549430089,,-0.015562310814857483,9.684545516967773
1622549430154,0.05027823522686958,-0.016759412363171577,
1622549430155,,,9.714473724365234
1622549430221,0.047884032130241394,,
1622549430222,,-0.0071826050989329815,
1622549430229,,,9.718064308166504
1622549430287,0.047884032130241394,,
1622549430288,,-0.010773907415568829,9.739612579345703
1622549430354,0.03950432687997818,-0.010773907415568829,
1622549430355,,,9.66539192199707
1622549430421,0.06464344263076782,0.0011971008498221636,9.696516990661621
1622549430487,0.05506663769483566,,
1622549430488,,-0.005985504016280174,9.667786598205566
1622549430554,0.05626374110579491,-0.026336219161748886,9.695320129394531
1622549430621,0.05147533491253853,-0.008379706181585789,9.737217903137207
1622549430687,0.04429273307323456,,
1622549430688,,-0.010773907415568829,9.749189376831055
1622549430754,0.04908113554120064,-0.0071826050989329815,9.703699111938477
1622549430821,0.05386953800916672,-0.010773907415568829,9.655815124511719
1622549430887,0.0454898327589035,,
1622549430888,,-0.023942016065120697,9.666589736938477
1622549430954,0.05147533491253853,-0.015562310814857483,9.678560256958008
1622549431021,0.047884032130241394,-0.010773907415568829,9.720458984375
1622549431088,0.0454898327589035,-0.015562310814857483,9.742006301879883
1622549431154,0.061052143573760986,-0.0071826050989329815,9.71926212310791
1622549431225,0.06823474913835526,-0.010773907415568829,9.672574996948242
1622549431292,0.061052143573760986,,
1622549431293,,-0.010773907415568829,9.66539192199707
1622549431354,0.05147533491253853,,
1622549431355,,-0.013168109580874443,9.706093788146973
1622549431425,0.047884032130241394,,
1622549431426,,-0.011971008032560349,9.738415718078613
1622549431491,0.04908113554120064,-0.009576806798577309,9.739612579345703
1622549431558,0.05746084079146385,-0.009576806798577309,9.72285270690918
1622549431625,0.04429273307323456,-0.008379706181585789,9.704896926879883
1622549431694,0.05147533491253853,-0.010773907415568829,9.66539192199707
1622549431758,0.05386953800916672,-0.005985504016280174,9.66539192199707
1622549431824,0.05267243832349777,,
1622549431825,,-0.008379706181585789,9.72285270690918
1622549431888,0.043095629662275314,-0.0035913025494664907,9.739612579345703
1622549431957,0.05626374110579491,,
1622549431958,,-0.002394201699644327,9.710882186889648
1622549432025,0.05626374110579491,-0.0011971008498221636,9.678560256958008
1622549432094,0.06224924325942993,-0.004788403399288654,9.674968719482422
1622549432156,0.05626374110579491,,
1622549432157,,-0.013168109580874443,9.694122314453125
1622549432225,0.040701430290937424,-0.0071826050989329815,9.72285270690918
1622549432290,0.0454898327589035,-0.015562310814857483,
1622549432291,,,9.750386238098145
1622549432357,0.04908113554120064,,
1622549432358,,-0.014365210197865963,9.740809440612793
1622549432429,0.05147533491253853,-0.009576806798577309,9.683348655700684
1622549432496,0.04668693244457245,-0.021547814831137657,9.655815124511719
1622549432560,0.05386953800916672,-0.009576806798577309,9.673771858215332
1622549432622,0.05506663769483566,-0.005985504016280174,9.716867446899414
1622549432690,0.04668693244457245,-0.005985504016280174,9.742006301879883
1622549432757,0.05386953800916672,-0.0011971008498221636,9.713275909423828
1622549432824,0.06224924325942993,,
1622549432825,,-0.013168109580874443,9.66539192199707
1622549432891,0.061052143573760986,-0.013168109580874443,9.653421401977539
1622549432958,0.05626374110579491,-0.019153613597154617,9.672574996948242
1622549433024,0.05267243832349777,,
1622549433025,,-0.019153613597154617,9.72165584564209
1622549433090,0.04668693244457245,-0.009576806798577309,9.739612579345703
1622549433156,0.05386953800916672,-0.010773907415568829,9.733627319335938
1622549433226,0.047884032130241394,-0.005985504016280174,9.670180320739746
1622549433291,0.05506663769483566,-0.019153613597154617,9.66299819946289
1622549433359,0.05386953800916672,-0.014365210197865963,
1622549433360,,,9.68813705444336
1622549433424,0.04668693244457245,-0.0071826050989329815,9.726444244384766
1622549433490,0.043095629662275314,-0.008379706181585789,9.724050521850586
1622549433561,0.05386953800916672,-0.019153613597154617,9.718064308166504
1622549433623,0.05147533491253853,-0.015562310814857483,9.657012939453125
1622549433691,0.05147533491253853,-0.016759412363171577,9.676166534423828
1622549433756,0.06584054976701736,-0.011971008032560349,9.657012939453125
1622549433824,0.04668693244457245,-0.016759412363171577,9.702502250671387
1622549433892,0.0454898327589035,-0.005985504016280174,9.744400978088379
1622549433959,0.04908113554120064,-0.0071826050989329815,9.731232643127441
1622549434024,0.05506663769483566,-0.002394201699644327,9.68694019317627
1622549434092,0.0586579404771328,,
1622549434093,,-0.017956512048840523,9.66419506072998
1622549434159,0.05985504388809204,-0.017956512048840523,9.671378135681152
1622549434224,0.05147533491253853,-0.011971008032560349,9.720458984375
1622549434290,0.04668693244457245,-0.009576806798577309,9.745597839355469
1622549434356,0.043095629662275314,-0.008379706181585789,9.740809440612793
1622549434425,0.05746084079146385,,
1622549434426,,-0.009576806798577309,9.707290649414062
1622549434489,0.06703764945268631,-0.0011971008498221636,9.670180320739746
1622549434555,0.05506663769483566,-0.020350715145468712,9.66539192199707
1622549434622,0.04429273307323456,-0.011971008032560349,9.71926212310791
1622549434690,0.05267243832349777,-0.011971008032560349,9.745597839355469
1622549434755,0.05147533491253853,-0.013168109580874443,9.714473724365234
1622549434821,0.05386953800916672,-0.008379706181585789,9.651026725769043
1622549434892,0.05626374110579491,-0.014365210197865963,9.65222454071045
1622549434954,0.05147533491253853,-0.017956512048840523,9.708487510681152
1622549435022,0.043095629662275314,-0.009576806798577309,
1622549435023,,,9.744400978088379
1622549435092,0.04429273307323456,-0.013168109580874443,9.734824180603027
1622549435155,0.04668693244457245,-0.014365210197865963,9.713275909423828
1622549435222,0.05626374110579491,,
1622549435223,,-0.008379706181585789,9.704896926879883
1622549435288,0.05746084079146385,,
1622549435289,,-0.013168109580874443,9.679757118225098
1622549435355,0.05746084079146385,-0.016759412363171577,9.674968719482422
1622549435422,0.047884032130241394,-0.013168109580874443,9.71926212310791
1622549435490,0.05626374110579491,,
1622549435491,,-0.008379706181585789,9.744400978088379
1622549435556,0.04189852997660637,-0.0071826050989329815,9.712079048156738
1622549435622,0.05746084079146385,-0.008379706181585789,9.677363395690918
1622549435688,0.05386953800916672,,
1622549435689,,-0.016759412363171577,9.657012939453125
1622549435756,0.06224924325942993,-0.016759412363171577,9.66419506072998
1622549435822,0.05626374110579491,-0.017956512048840523,9.696516990661621
1622549435891,0.04668693244457245,,
1622549435892,,-0.011971008032560349,9.742006301879883
1622549435958,0.040701430290937424,-0.0035913025494664907,9.731232643127441
1622549436022,0.05746084079146385,-0.002394201699644327,9.682151794433594
1622549436088,0.0586579404771328,-0.0035913025494664907,9.651026725769043
1622549436155,0.047884032130241394,-0.014365210197865963,9.670180320739746
1622549436221,0.0454898327589035,,
1622549436222,,-0.004788403399288654,9.72165584564209
1622549436287,0.038307227194309235,,
1622549436292,,-0.0035913025494664907,9.732429504394531
1622549436354,0.05506663769483566,-0.010773907415568829,
1622549436355,,,9.714473724365234
1622549436424,0.05626374110579491,-0.011971008032560349,9.654618263244629
1622549436487,0.05626374110579491,,
1622549436488,,-0.004788403399288654,9.649829864501953
1622549436554,0.04668693244457245,-0.019153613597154617,9.647436141967773
1622549436621,0.0454898327589035,-0.017956512048840523,9.715670585632324
1622549436688,0.04908113554120064,-0.005985504016280174,9.750386238098145
1622549436754,0.05147533491253853,-0.005985504016280174,
1622549436755,,,9.724050521850586
1622549436824,0.05746084079146385,,
1622549436825,,-0.004788403399288654,9.668983459472656
1622549436887,0.05626374110579491,,
1622549436888,,-0.019153613597154617,9.643844604492188
1622549436954,0.05027823522686958,-0.005985504016280174,9.673771858215332
1622549437021,0.05386953800916672,-0.011971008032560349,9.731232643127441
1622549437088,0.038307227194309235,-0.0035913025494664907,9.72165584564209
1622549437155,0.05386953800916672,0.002394201699644327,9.731232643127441
1622549437221,0.05267243832349777,-0.009576806798577309,9.694122314453125
1622549437287,0.06224924325942993,,
1622549437288,,-0.0011971008498221636,9.668983459472656
1622549437357,0.05506663769483566,-0.014365210197865963,9.668983459472656
1622549437421,0.047884032130241394,-0.015562310814857483,9.68933391571045
1622549437490,0.043095629662275314,-0.009576806798577309,9.745597839355469
1622549437554,0.04189852997660637,,
1622549437555,,0.0011971008498221636,9.709685325622559
1622549437621,0.05147533491253853,-0.013168109580874443,
1622549437622,,,9.676166534423828
1622549437689,0.05147533491253853,-0.008379706181585789,9.66539192199707
1622549437754,0.05626374110579491,,
1622549437755,,-0.023942016065120697,9.68574333190918
1622549437821,0.05746084079146385,-0.011971008032560349,9.710882186889648
1622549437887,0.03950432687997818,,
1622549437888,,-0.019153613597154617,9.72285270690918
1622549437956,0.04908113554120064,-0.014365210197865963,9.728838920593262
1622549438020,0.05746084079146385,,
1622549438021,,-0.004788403399288654,9.701305389404297
1622549438088,0.047884032130241394,-0.016759412363171577,9.655815124511719
1622549438155,0.05985504388809204,-0.020350715145468712,9.678560256958008
1622549438221,0.047884032130241394,,
1622549438222,,-0.017956512048840523,9.720458984375
1622549438287,0.04908113554120064,,
1622549438288,,-0.017956512048840523,9.733627319335938
1622549438354,0.05506663769483566,,
1622549438355,,-0.0035913025494664907,9.695320129394531
1622549438421,0.05506663769483566,-0.009576806798577309,
1622549438422,,,9.659406661987305
1622549438487,0.05267243832349777,,
1622549438488,,-0.013168109580874443,9.660603523254395
1622549438554,0.06584054976701736,,
1622549438555,,-0.016759412363171577,9.66539192199707
1622549438623,0.047884032130241394,-0.014365210197865963,
1622549438687,0.0454898327589035,,
1622549438689,,-0.021547814831137657,9.737217903137207
1622549438756,0.04189852997660637,-0.016759412363171577,9.691728591918945
1622549438821,0.05386953800916672,-0.019153613597154617,9.677363395690918
1622549438887,0.0454898327589035,,
1622549438888,,-0.02274491637945175,9.6618013381958
1622549438955,0.05506663769483566,,
1622549438956,,-0.013168109580874443,
1622549438957,,,9.691728591918945
1622549439021,0.0454898327589035,,
1622549439022,,-0.015562310814857483,9.738415718078613
1622549439087,0.0454898327589035,,
1622549439088,,-0.013168109580874443,9.744400978088379
1622549439154,0.05267243832349777,,
1622549439155,,-0.010773907415568829,9.68813705444336
1622549439221,0.06584054976701736,,
1622549439222,,-0.019153613597154617,9.672574996948242
1622549439289,0.05746084079146385,-0.013168109580874443,
1622549439290,,,9.649829864501953
1622549439354,0.05147533491253853,-0.014365210197865963,9.670180320739746
1622549439421,0.04668693244457245,-0.016759412363171577,9.706093788146973
1622549439488,0.04189852997660637,,
1622549439489,,-0.008379706181585789,
1622549439490,,,9.739612579345703
1622549439556,0.04668693244457245,-0.0011971008498221636,9.734824180603027
1622549439621,0.040701430290937424,-0.010773907415568829,9.680954933166504
1622549439687,0.06344634294509888,,
1622549439688,,-0.021547814831137657,9.6618013381958
1622549439754,0.05746084079146385,,
1622549439756,,-0.008379706181585789,9.678560256958008
1622549439823,0.03711012750864029,-0.020350715145468712,9.714473724365234
1622549439887,0.04908113554120064,,
1622549439888,,-0.013168109580874443,9.747992515563965
1622549439955,0.0454898327589035,-0.008379706181585789,9.745597839355469
1622549440021,0.04908113554120064,,
1622549440023,,-0.015562310814857483,9.700108528137207
1622549440087,0.06224924325942993,,
1622549440088,,-0.019153613597154617,9.654618263244629
1622549440154,0.05985504388809204,,
1622549440155,,-0.015562310814857483,9.668983459472656
1622549440221,0.04908113554120064,,
1622549440222,,-0.020350715145468712,9.724050521850586
1622549440287,0.047884032130241394,,
1622549440289,,-0.019153613597154617,9.737217903137207
1622549440354,0.04908113554120064,,
1622549440355,,-0.017956512048840523,9.727641105651855
1622549440421,0.047884032130241394,-0.011971008032560349,9.682151794433594
1622549440487,0.05626374110579491,,
1622549440488,,-0.015562310814857483,9.668983459472656
1622549440554,0.05746084079146385,,
1622549440556,,-0.023942016065120697,9.6989107131958
1622549440621,0.04668693244457245,,
1622549440622,,-0.019153613597154617,9.738415718078613
1622549440688,0.05027823522686958,-0.0071826050989329815,9.75517463684082
1622549440754,0.0454898327589035,,
1622549440755,,-0.010773907415568829,9.733627319335938
1622549440821,0.0586579404771328,,
1622549440823,,-0.014365210197865963,9.668983459472656
1622549440887,0.05147533491253853,,
1622549440888,,-0.010773907415568829,9.66299819946289
1622549440955,0.04189852997660637,-0.013168109580874443,
1622549440956,,,9.68574333190918
1622549441021,0.05147533491253853,,
1622549441022,,-0.015562310814857483,9.706093788146973
1622549441088,0.04429273307323456,-0.016759412363171577,9.727641105651855
1622549441154,0.04668693244457245,-0.013168109580874443,
1622549441155,,,9.700108528137207
1622549441221,0.04908113554120064,-0.021547814831137657,9.668983459472656
1622549441288,0.08858546614646912,-0.02513911761343479,10.054450035095215
1622549441355,0.02274491637945175,-0.13407529890537262,9.897629737854004
1622549441421,0.020350715145468712,0.002394201699644327,9.872490882873535
1622549441488,0.026336219161748886,,
1622549441489,,-0.008379706181585789,9.586383819580078
1622549441554,0.043095629662275314,-0.016759412363171577,9.818621635437012
1622549441621,0.02753331884741783,,
1622549441622,,-0.010773907415568829,9.674968719482422
1622549441688,0.06464344263076782,-0.011971008032560349,9.403226852416992
1622549441754,0.02992752194404602,-0.023942016065120697,9.733627319335938
1622549441820,0.0347159244120121,,
1622549441821,,-0.0011971008498221636,9.714473724365234
1622549441888,0.047884032130241394,-0.0071826050989329815,
1622549441890,,,9.713275909423828
1622549441954,0.04668693244457245,0.010773907415568829,9.759963035583496
1622549442021,0.05386953800916672,-0.005985504016280174,9.676166534423828
1622549442088,0.05746084079146385,,
1622549442089,,-0.009576806798577309,9.6618013381958
1622549442154,0.04668693244457245,-0.021547814831137657,
1622549442156,,,9.62947940826416
1622549442221,0.05746084079146385,-0.011971008032560349,9.700108528137207
1622549442288,0.040701430290937424,-0.015562310814857483,9.757569313049316
1622549442355,0.047884032130241394,-0.0071826050989329815,9.714473724365234
1622549442421,0.05985504388809204,-0.0071826050989329815,9.678560256958008
1622549442488,0.05147533491253853,-0.015562310814857483,9.666589736938477
1622549442554,0.05985504388809204,-0.021547814831137657,9.653421401977539
1622549442621,0.05506663769483566,-0.009576806798577309,9.710882186889648
1622549442688,0.04189852997660637,-0.014365210197865963,9.743204116821289
1622549442754,0.05626374110579491,,
1622549442755,,-0.009576806798577309,9.727641105651855
1622549442821,0.04668693244457245,-0.004788403399288654,9.703699111938477
1622549442888,0.047884032130241394,-0.009576806798577309,
1622549442889,,,9.657012939453125
1622549442954,0.05506663769483566,,
1622549442956,,-0.014365210197865963,9.673771858215332
1622549443021,0.04908113554120064,-0.015562310814857483,9.707290649414062
1622549443088,0.03950432687997818,-0.013168109580874443,9.718064308166504
1622549443154,0.04668693244457245,-0.019153613597154617,
1622549443155,,,9.715670585632324
1622549443221,0.05506663769483566,-0.0011971008498221636,
1622549443223,,,9.68933391571045
1622549443288,0.05626374110579491,-0.020350715145468712,
1622549443289,,,9.654618263244629
1622549443355,0.05626374110579491,-0.014365210197865963,9.678560256958008
1622549443421,0.0454898327589035,,
1622549443422,,-0.013168109580874443,9.733627319335938
1622549443488,0.05147533491253853,,
1622549443490,,-0.011971008032560349,9.734824180603027
1622549443554,0.05746084079146385,,
1622549443555,,-0.0011971008498221636,9.732429504394531
1622549443621,0.0454898327589035,,
1622549443622,,-0.010773907415568829,9.679757118225098
1622549443688,0.0586579404771328,-0.008379706181585789,
1622549443689,,,9.657012939453125
1622549443755,0.06584054976701736,,
1622549443757,,-0.019153613597154617,9.653421401977539
1622549443821,0.05027823522686958,-0.009576806798577309,9.726444244384766
1622549443888,0.0454898327589035,-0.011971008032560349,9.731232643127441
1622549443955,0.0586579404771328,-0.0035913025494664907,
1622549443956,,,9.695320129394531
1622549444022,0.04668693244457245,-0.009576806798577309,9.672574996948242
1622549444088,0.05746084079146385,-0.0011971008498221636,
1622549444089,,,9.658209800720215
1622549444155,0.05267243832349777,-0.015562310814857483,9.696516990661621
1622549444221,0.04668693244457245,-0.009576806798577309,
1622549444222,,,9.682151794433594
1622549444288,0.061052143573760986,,
1622549444290,,-0.011971008032560349,9.725247383117676
1622549444354,0.047884032130241394,,
1622549444355,,-0.015562310814857483,9.734824180603027
1622549444421,0.05985504388809204,-0.0011971008498221636,
1622549444422,,,9.682151794433594
1622549444488,0.06584054976701736,,
1622549444489,,-0.017956512048840523,9.65222454071045
1622549444555,0.05386953800916672,-0.014365210197865963,
1622549444557,,,9.68813705444336
1622549444621,0.043095629662275314,-0.009576806798577309,9.718064308166504
1622549444688,0.05506663769483566,,
1622549444689,,-0.009576806798577309,9.726444244384766
1622549444755,0.04908113554120064,-0.004788403399288654,
1622549444756,,,9.708487510681152
1622549444821,0.05506663769483566,,
1622549444823,,0.0011971008498221636,9.659406661987305
1622549444888,0.0586579404771328,-0.011971008032560349,9.678560256958008
1622549444955,0.06703764945268631,-0.017956512048840523,9.666589736938477
1622549445021,0.04668693244457245,-0.008379706181585789,9.692925453186035
1622549445088,0.05027823522686958,,
1622549445090,,-0.005985504016280174,9.738415718078613
1622549445154,0.04189852997660637,,
1622549445155,,0.0011971008498221636,9.727641105651855
1622549445221,0.061052143573760986,0.0071826050989329815,
1622549445222,,,9.691728591918945
1622549445288,0.05626374110579491,-0.015562310814857483,9.660603523254395
1622549445354,0.04908113554120064,-0.013168109580874443,
1622549445356,,,9.682151794433594
1622549445421,0.05027823522686958,-0.014365210197865963,9.72165584564209
1622549445487,0.05147533491253853,,
1622549445488,,-0.008379706181585789,9.740809440612793
1622549445554,0.047884032130241394,,
1622549445555,,-0.0035913025494664907,9.724050521850586
1622549445621,0.043095629662275314,,
1622549445623,,-0.009576806798577309,9.718064308166504
1622549445688,0.05147533491253853,-0.015562310814857483,9.682151794433594
1622549445754,0.05027823522686958,,
1622549445755,,-0.017956512048840523,9.654618263244629
1622549445821,0.061052143573760986,-0.0071826050989329815,9.710882186889648
1622549445888,0.04668693244457245,,
1622549445889,,-0.0071826050989329815,
1622549445891,,,9.75397777557373
1622549445954,0.047884032130241394,0.002394201699644327,
1622549445955,,,9.727641105651855
1622549446021,0.05746084079146385,-0.013168109580874443,
1622549446022,,,9.674968719482422
1622549446088,0.05147533491253853,-0.0035913025494664907,9.659406661987305
1622549446155,0.05626374110579491,-0.017956512048840523,
1622549446158,,,9.683348655700684
1622549446221,0.043095629662275314,,
1622549446222,,-0.014365210197865963,9.747992515563965
1622549446288,0.0454898327589035,-0.0035913025494664907,9.743204116821289
1622549446354,0.04429273307323456,,
1622549446355,,-0.0035913025494664907,9.725247383117676
1622549446421,0.04908113554120064,,
1622549446424,,-0.011971008032560349,9.68574333190918
1622549446488,0.0586579404771328,-0.008379706181585789,9.6618013381958
1622549446554,0.0586579404771328,,
1622549446555,,-0.0071826050989329815,9.678560256958008
1622549446621,0.05027823522686958,,
1622549446622,,-0.010773907415568829,9.715670585632324
1622549446688,0.05147533491253853,-0.009576806798577309,
1622549446690,,,9.727641105651855
1622549446754,0.06224924325942993,,
1622549446755,,-0.0011971008498221636,9.720458984375
1622549446822,0.03950432687997818,-0.008379706181585789,9.6989107131958
1622549446887,0.05027823522686958,,
1622549446888,,-0.021547814831137657,9.660603523254395
1622549446955,0.06224924325942993,,
1622549446957,,-0.015562310814857483,9.677363395690918
1622549447021,0.05147533491253853,-0.013168109580874443,9.6989107131958
1622549447087,0.05386953800916672,-0.013168109580874443,
1622549447088,,,9.714473724365234
1622549447154,0.04429273307323456,,
1622549447155,,-0.0071826050989329815,9.750386238098145
1622549447221,0.04668693244457245,,
1622549447222,,-0.004788403399288654,9.68574333190918
1622549447287,0.05506663769483566,,
1622549447288,,-0.009576806798577309,9.653421401977539
1622549447354,0.05626374110579491,,
1622549447355,,-0.011971008032560349,9.68933391571045
1622549447421,0.047884032130241394,,
1622549447422,,-0.011971008032560349,9.71926212310791
1622549447487,0.04429273307323456,,
1622549447489,,-0.005985504016280174,9.738415718078613
1622549447554,0.06464344263076782,-0.010773907415568829,9.736021041870117
1622549447621,0.047884032130241394,-0.011971008032560349,9.68574333190918
1622549447688,0.06344634294509888,-0.005985504016280174,9.680954933166504
1622549447755,0.05027823522686958,-0.014365210197865963,9.6618013381958
1622549447821,0.047884032130241394,-0.02753331884741783,9.677363395690918
1622549447888,0.05506663769483566,-0.0035913025494664907,9.736021041870117
1622549447954,0.03950432687997818,-0.013168109580874443,9.744400978088379
1622549448021,0.05985504388809204,-0.011971008032560349,9.682151794433594
1622549448088,0.061052143573760986,-0.002394201699644327,9.65222454071045
1622549448154,0.061052143573760986,,
1622549448155,,-0.017956512048840523,9.690531730651855
1622549448221,0.05147533491253853,-0.013168109580874443,9.720458984375
1622549448288,0.04668693244457245,0.002394201699644327,9.738415718078613
1622549448354,0.04189852997660637,,
1622549448355,,-0.005985504016280174,9.739612579345703
1622549448421,0.05506663769483566,0.002394201699644327,9.704896926879883
1622549448488,0.05985504388809204,-0.008379706181585789,9.682151794433594
1622549448555,0.05386953800916672,-0.009576806798577309,9.68574333190918
1622549448621,0.0586579404771328,-0.009576806798577309,
1622549448622,,,9.695320129394531
1622549448688,0.05147533491253853,-0.014365210197865963,9.731232643127441
1622549448755,0.04908113554120064,-0.0035913025494664907,9.716867446899414
1622549448821,0.05746084079146385,,
1622549448822,,-0.010773907415568829,9.68574333190918
1622549448888,0.06224924325942993,-0.005985504016280174,9.66539192199707
1622549448955,0.04668693244457245,-0.014365210197865963,9.690531730651855
1622549449021,0.05386953800916672,-0.0035913025494664907,
1622549449022,,,9.71926212310791
1622549449088,0.03950432687997818,,
1622549449089,,-0.010773907415568829,9.727641105651855
1622549449154,0.05267243832349777,-0.010773907415568829,9.733627319335938
1622549449221,0.04908113554120064,,
1622549449222,,-0.004788403399288654,9.692925453186035
1622549449287,0.05626374110579491,,
1622549449288,,-0.011971008032560349,9.6618013381958
1622549449354,0.05985504388809204,-0.010773907415568829,9.671378135681152
1622549449421,0.04668693244457245,,
1622549449422,,-0.009576806798577309,9.715670585632324
1622549449488,0.03711012750864029,-0.008379706181585789,9.740809440612793
1622549449554,0.04908113554120064,,
1622549449555,,-0.008379706181585789,9.740809440612793
1622549449621,0.06464344263076782,-0.010773907415568829,9.678560256958008
1622549449688,0.05985504388809204,-0.017956512048840523,9.658209800720215
1622549449754,0.06224924325942993,-0.011971008032560349,
1622549449755,,,9.653421401977539
1622549449821,0.04668693244457245,-0.013168109580874443,9.6989107131958
1622549449888,0.047884032130241394,-0.014365210197865963,9.731232643127441
1622549449954,0.047884032130241394,-0.010773907415568829,9.740809440612793
1622549450022,0.061052143573760986,-0.005985504016280174,9.712079048156738
1622549450088,0.06224924325942993,-0.014365210197865963,9.659406661987305
1622549450154,0.05746084079146385,,
1622549450155,,-0.011971008032560349,9.678560256958008
1622549450221,0.04668693244457245,-0.0035913025494664907,9.720458984375
1622549450288,0.0454898327589035,-0.002394201699644327,9.728838920593262
1622549450354,0.05506663769483566,-0.0035913025494664907,9.71926212310791
1622549450421,0.043095629662275314,-0.005985504016280174,9.718064308166504
1622549450488,0.05746084079146385,-0.005985504016280174,9.672574996948242
1622549450555,0.05985504388809204,-0.019153613597154617,9.668983459472656
1622549450621,0.043095629662275314,-0.014365210197865963,9.697713851928711
1622549450687,0.05267243832349777,,
1622549450688,,-0.013168109580874443,9.72285270690918
1622549450754,0.0454898327589035,-0.0035913025494664907,9.72285270690918
1622549450821,0.047884032130241394,-0.008379706181585789,9.701305389404297
1622549450888,0.05506663769483566,-0.010773907415568829,9.6618013381958
1622549450954,0.06344634294509888,-0.011971008032560349,9.679757118225098
1622549451021,0.05267243832349777,-0.0071826050989329815,9.718064308166504
1622549451087,0.047884032130241394,,
1622549451088,,-0.008379706181585789,9.733627319335938
1622549451154,0.04908113554120064,-0.013168109580874443,9.75637149810791
1622549451221,0.05027823522686958,-0.004788403399288654,9.718064308166504
1622549451287,0.05506663769483566,,
1622549451288,,-0.002394201699644327,9.674968719482422
1622549451355,0.06224924325942993,-0.008379706181585789,9.680954933166504
1622549451421,0.05147533491253853,,
1622549451422,,-0.016759412363171577,9.695320129394531
1622549451488,0.05386953800916672,-0.010773907415568829,9.749189376831055
1622549451554,0.033518824726343155,-0.0011971008498221636,
1622549451555,,,9.739612579345703
1622549451621,0.05506663769483566,,
1622549451622,,-0.013168109580874443,9.684545516967773
1622549451687,0.06344634294509888,-0.008379706181585789,
1622549451688,,,9.645041465759277
1622549451754,0.05746084079146385,-0.020350715145468712,9.704896926879883
1622549451821,0.05267243832349777,-0.015562310814857483,9.739612579345703
1622549451888,0.04189852997660637,-0.011971008032560349,9.743204116821289
1622549451954,0.047884032130241394,,
1622549451955,,-0.016759412363171577,9.731232643127441
1622549452021,0.05506663769483566,-0.004788403399288654,9.715670585632324
1622549452088,0.0586579404771328,-0.009576806798577309,9.66299819946289
1622549452154,0.05267243832349777,-0.005985504016280174,9.670180320739746
1622549452221,0.04908113554120064,-0.009576806798577309,9.72165584564209
1622549452288,0.047884032130241394,-0.009576806798577309,9.757569313049316
1622549452354,0.04429273307323456,-0.0011971008498221636,9.714473724365234
1622549452421,0.05626374110579491,-0.010773907415568829,9.690531730651855
1622549452489,0.06464344263076782,-0.013168109580874443,9.672574996948242
1622549452554,0.05147533491253853,-0.008379706181585789,9.660603523254395
1622549452621,0.06464344263076782,-0.0071826050989329815,9.697713851928711
1622549452687,0.0454898327589035,-0.015562310814857483,9.75278091430664
1622549452754,0.061052143573760986,-0.010773907415568829,9.730035781860352
1622549452821,0.05985504388809204,-0.010773907415568829,9.700108528137207
1622549452887,0.05506663769483566,,
1622549452888,,-0.0011971008498221636,9.676166534423828
1622549452954,0.05985504388809204,-0.019153613597154617,9.659406661987305
1622549453021,0.0586579404771328,-0.005985504016280174,9.713275909423828
1622549453087,0.047884032130241394,,
1622549453088,,-0.014365210197865963,9.780313491821289
1622549453154,0.03711012750864029,,
1622549453155,,-0.008379706181585789,9.726444244384766
1622549453221,0.05267243832349777,-0.002394201699644327,9.732429504394531
1622549453288,0.05027823522686958,-0.010773907415568829,9.6618013381958
1622549453354,0.0586579404771328,,
1622549453355,,-0.015562310814857483,9.66419506072998
1622549453421,0.05386953800916672,-0.008379706181585789,9.710882186889648
1622549453488,0.0347159244120121,-0.010773907415568829,
1622549453489,,,9.730035781860352
1622549453554,0.05506663769483566,-0.005985504016280174,
1622549453556,,,9.739612579345703
1622549453621,0.0586579404771328,-0.005985504016280174,9.700108528137207
1622549453688,0.0586579404771328,-0.010773907415568829,9.65222454071045
1622549453755,0.05985504388809204,-0.011971008032560349,9.673771858215332
1622549453821,0.05027823522686958,,
1622549453822,,-0.010773907415568829,9.731232643127441
1622549453887,0.04189852997660637,,
1622549453889,,-0.013168109580874443,
1622549453890,,,9.724050521850586
1622549453954,0.05746084079146385,-0.008379706181585789,9.739612579345703
1622549454021,0.04429273307323456,-0.0035913025494664907,9.6989107131958
1622549454088,0.06464344263076782,-0.004788403399288654,
1622549454092,,,9.672574996948242
1622549454154,0.05985504388809204,-0.010773907415568829,9.667786598205566
1622549454221,0.04668693244457245,-0.019153613597154617,9.718064308166504
1622549454288,0.05027823522686958,-0.008379706181585789,9.726444244384766
1622549454362,0.06224924325942993,-0.005985504016280174,9.712079048156738
1622549454421,0.04908113554120064,-0.008379706181585789,
1622549454425,,,9.677363395690918
1622549454488,0.05746084079146385,-0.014365210197865963,9.66299819946289
1622549454554,0.05267243832349777,-0.013168109580874443,9.690531730651855
1622549454621,0.0454898327589035,,
1622549454622,,-0.021547814831137657,9.683348655700684
1622549454692,0.05985504388809204,-0.011971008032560349,9.714473724365234
1622549454758,0.05027823522686958,-0.015562310814857483,9.745597839355469
1622549454825,0.05626374110579491,-0.004788403399288654,9.703699111938477
1622549454888,0.05985504388809204,-0.008379706181585789,9.678560256958008
1622549454961,0.047884032130241394,-0.009576806798577309,9.676166534423828
1622549455025,0.04189852997660637,-0.02992752194404602,9.702502250671387
1622549455091,0.05147533491253853,-0.010773907415568829,9.749189376831055
1622549455154,0.035913024097681046,,
1622549455155,,0.005985504016280174,9.75637149810791
1622549455225,0.05626374110579491,-0.020350715145468712,9.63067626953125
1622549455291,0.07302315533161163,-0.014365210197865963,9.668983459472656
1622549455358,0.05147533491253853,-0.010773907415568829,
1622549455359,,,9.674968719482422
1622549455427,0.05147533491253853,,
1622549455428,,-0.021547814831137657,9.68813705444336
1622549455491,0.05506663769483566,,
1622549455492,,-0.014365210197865963,9.736021041870117
1622549455558,0.03950432687997818,-0.008379706181585789,9.733627319335938
1622549455624,0.05147533491253853,,
1622549455625,,-0.011971008032560349,9.702502250671387
1622549455691,0.05746084079146385,-0.016759412363171577,9.66539192199707
1622549455760,0.05027823522686958,-0.017956512048840523,9.668983459472656
1622549455824,0.05626374110579491,,
1622549455825,,-0.004788403399288654,9.72285270690918
1622549455892,0.043095629662275314,-0.010773907415568829,9.744400978088379
1622549455957,0.043095629662275314,-0.005985504016280174,9.724050521850586
1622549456025,0.05147533491253853,,
1622549456026,,-0.0011971008498221636,9.716867446899414
1622549456091,0.04189852997660637,-0.017956512048840523,
1622549456092,,,9.671378135681152
1622549456159,0.05147533491253853,-0.016759412363171577,9.668983459472656
1622549456225,0.05746084079146385,0.0011971008498221636,9.714473724365234
1622549456290,0.05267243832349777,-0.010773907415568829,
1622549456291,,,9.736021041870117
1622549456358,0.05267243832349777,-0.020350715145468712,9.728838920593262
1622549456425,0.05626374110579491,-0.005985504016280174,9.682151794433594
1622549456490,0.05027823522686958,-0.021547814831137657,9.585186958312988
1622549456557,0.038307227194309235,-0.021547814831137657,9.731232643127441
1622549456626,0.05506663769483566,-0.009576806798577309,9.724050521850586
1622549456690,0.05267243832349777,-0.014365210197865963,9.725247383117676
1622549456758,0.05506663769483566,-0.009576806798577309,9.744400978088379
1622549456823,0.047884032130241394,-0.0035913025494664907,9.725247383117676
1622549456892,0.0586579404771328,-0.021547814831137657,9.679757118225098
1622549456959,0.05626374110579491,-0.011971008032560349,9.655815124511719
1622549457026,0.05267243832349777,-0.014365210197865963,
1622549457027,,,9.713275909423828
1622549457091,0.040701430290937424,-0.011971008032560349,9.731232643127441
1622549457158,0.06344634294509888,-0.002394201699644327,9.71926212310791
1622549457223,0.06224924325942993,-0.015562310814857483,9.696516990661621
1622549457290,0.043095629662275314,-0.019153613597154617,9.654618263244629
1622549457357,0.05746084079146385,-0.015562310814857483,9.692925453186035
1622549457423,0.03950432687997818,-0.017956512048840523,9.679757118225098
1622549457490,0.05267243832349777,,
1622549457491,,-0.013168109580874443,9.725247383117676
1622549457559,0.05267243832349777,-0.004788403399288654,9.746794700622559
1622549457625,0.05386953800916672,-0.008379706181585789,9.700108528137207
1622549457691,0.05147533491253853,-0.014365210197865963,9.660603523254395
1622549457756,0.07182604819536209,-0.0035913025494664907,9.677363395690918
1622549457823,0.0454898327589035,,
1622549457824,,-0.008379706181585789,9.71926212310791
1622549457889,0.05386953800916672,-0.002394201699644327,9.744400978088379
1622549457957,0.06224924325942993,0.0035913025494664907,9.714473724365234
1622549458023,0.04668693244457245,-0.020350715145468712,9.682151794433594
1622549458090,0.0694318488240242,-0.004788403399288654,9.682151794433594
1622549458157,0.06464344263076782,,
1622549458158,,-0.010773907415568829,9.701305389404297
1622549458222,0.03711012750864029,-0.014365210197865963,9.66539192199707
1622549458289,0.06224924325942993,-0.0071826050989329815,9.731232643127441
1622549458354,0.040701430290937424,,
1622549458355,,-0.013168109580874443,9.75637149810791
1622549458422,0.04668693244457245,-0.011971008032560349,9.683348655700684
1622549458489,0.06703764945268631,,
1622549458490,,-0.011971008032560349,9.668983459472656
1622549458555,0.05985504388809204,-0.0035913025494664907,9.673771858215332
1622549458622,0.047884032130241394,,
1622549458623,,-0.014365210197865963,9.704896926879883
1622549458688,0.05147533491253853,,
1622549458689,,-0.010773907415568829,9.759963035583496
1622549458757,0.05267243832349777,,
1622549458758,,0.008379706181585789,9.714473724365234
1622549458822,0.0454898327589035,-0.004788403399288654,9.696516990661621
1622549458888,0.05985504388809204,-0.0071826050989329815,9.667786598205566
1622549458955,0.04668693244457245,-0.008379706181585789,9.658209800720215
1622549459021,0.061052143573760986,,
1622549459022,,-0.020350715145468712,9.679757118225098
1622549459088,0.05506663769483566,-0.014365210197865963,9.751583099365234
1622549459155,0.043095629662275314,,
1622549459156,,-0.011971008032560349,9.716867446899414
1622549459225,0.05746084079146385,0.008379706181585789,9.704896926879883
1622549459289,0.06823474913835526,0.004788403399288654,9.66299819946289
1622549459354,0.04908113554120064,-0.026336219161748886,9.678560256958008
1622549459421,0.0454898327589035,-0.015562310814857483,9.72165584564209
1622549459490,0.04429273307323456,-0.019153613597154617,9.739612579345703
1622549459554,0.04189852997660637,-0.014365210197865963,9.720458984375
1622549459622,0.05746084079146385,-0.0035913025494664907,9.703699111938477
1622549459688,0.05386953800916672,-0.0011971008498221636,9.653421401977539
1622549459754,0.047884032130241394,-0.009576806798577309,
1622549459755,,,9.670180320739746
1622549459821,0.05746084079146385,-0.010773907415568829,9.696516990661621
1622549459891,0.043095629662275314,-0.010773907415568829,
1622549459892,,,9.730035781860352
1622549459958,0.04189852997660637,-0.013168109580874443,9.714473724365234
1622549460029,0.05985504388809204,0.0011971008498221636,9.683348655700684
1622549460088,0.04668693244457245,0.002394201699644327,9.66419506072998
1622549460154,0.047884032130241394,-0.0071826050989329815,
1622549460155,,,9.68574333190918
1622549460221,0.05506663769483566,-0.004788403399288654,9.731232643127441
1622549460288,0.038307227194309235,,
1622549460290,,-0.011971008032560349,9.72165584564209
1622549460355,0.05506663769483566,-0.009576806798577309,9.712079048156738
1622549460422,0.05506663769483566,-0.002394201699644327,9.694122314453125
1622549460488,0.04908113554120064,-0.019153613597154617,
1622549460489,,,9.65222454071045
1622549460554,0.061052143573760986,,
1622549460556,,-0.008379706181585789,9.657012939453125
1622549460626,0.06464344263076782,-0.014365210197865963,9.712079048156738
1622549460687,0.03711012750864029,,
1622549460688,,-0.014365210197865963,9.732429504394531
1622549460754,0.05267243832349777,-0.005985504016280174,
1622549460755,,,9.727641105651855
1622549460821,0.0694318488240242,,
1622549460822,,-0.010773907415568829,9.593565940856934
1622549460889,0.03232172131538391,,
1622549460890,,0.010773907415568829,9.747992515563965
1622549460954,0.06703764945268631,,
1622549460955,,-0.002394201699644327,9.672574996948242
1622549461021,0.047884032130241394,,
1622549461022,,-0.02274491637945175,9.657012939453125
1622549461088,0.0347159244120121,,
1622549461089,,-0.015562310814857483,9.739612579345703
1622549461155,0.03950432687997818,0.005985504016280174,9.710882186889648
1622549461224,0.0454898327589035,-0.0035913025494664907,9.730035781860352
1622549461288,0.03711012750864029,-0.008379706181585789,9.655815124511719
1622549461354,0.05147533491253853,,
1622549461356,,-0.002394201699644327,9.651026725769043
1622549461421,0.04908113554120064,-0.014365210197865963,9.718064308166504
1622549461488,0.03950432687997818,-0.011971008032560349,9.727641105651855
1622549461554,0.05267243832349777,-0.005985504016280174,
1622549461555,,,9.703699111938477
1622549461625,0.04668693244457245,-0.015562310814857483,9.707290649414062
1622549461688,0.05506663769483566,-0.011971008032560349,9.672574996948242
1622549461755,0.05267243832349777,-0.015562310814857483,9.677363395690918
1622549461822,0.05147533491253853,-0.010773907415568829,
1622549461823,,,9.682151794433594
1622549461888,0.05746084079146385,,
1622549461890,,-0.011971008032560349,9.736021041870117
1622549461954,0.05626374110579491,-0.011971008032560349,9.727641105651855
1622549462021,0.047884032130241394,-0.016759412363171577,9.68813705444336
1622549462088,0.05267243832349777,-0.005985504016280174,9.667786598205566
1622549462154,0.06464344263076782,,
1622549462155,,-0.016759412363171577,
1622549462157,,,9.68574333190918
1622549462221,0.03711012750864029,-0.019153613597154617,9.713275909423828
1622549462288,0.0694318488240242,-0.011971008032560349,9.724050521850586
1622549462355,0.035913024097681046,,
1622549462356,,-0.008379706181585789,9.726444244384766
1622549462423,0.038307227194309235,-0.008379706181585789,9.709685325622559
1622549462488,0.06464344263076782,0.0011971008498221636,9.655815124511719
1622549462554,0.05386953800916672,,
1622549462555,,-0.009576806798577309,9.684545516967773
1622549462621,0.0454898327589035,-0.014365210197865963,9.696516990661621
1622549462687,0.05267243832349777,,
1622549462689,,-0.014365210197865963,9.733627319335938
1622549462754,0.040701430290937424,,
1622549462755,,-0.004788403399288654,9.739612579345703
1622549462821,0.04429273307323456,,
1622549462822,,-0.004788403399288654,9.683348655700684
1622549462888,0.0586579404771328,,
1622549462889,,-0.002394201699644327,9.641449928283691
1622549462954,0.04908113554120064,-0.011971008032560349,
1622549462956,,,9.684545516967773
1622549463021,0.06224924325942993,-0.015562310814857483,9.670180320739746
1622549463088,0.043095629662275314,-0.013168109580874443,9.738415718078613
1622549463154,0.04429273307323456,,
1622549463155,,-0.009576806798577309,9.731232643127441
1622549463221,0.05626374110579491,,
1622549463223,,-0.011971008032560349,9.697713851928711
1622549463288,0.0586579404771328,-0.010773907415568829,9.671378135681152
1622549463354,0.03711012750864029,,
1622549463355,,-0.015562310814857483,9.654618263244629
1622549463421,0.06464344263076782,,
1622549463422,,-0.021547814831137657,9.68694019317627
1622549463488,0.0454898327589035,,
1622549463490,,-0.019153613597154617,9.749189376831055
1622549463554,0.03711012750864029,,
1622549463555,,-0.015562310814857483,9.725247383117676
1622549463621,0.06344634294509888,-0.005985504016280174,9.679757118225098
1622549463687,0.047884032130241394,,
1622549463688,,-0.0071826050989329815,9.68933391571045
1622549463754,0.05626374110579491,-0.019153613597154617,
1622549463756,,,9.659406661987305
1622549463821,0.0586579404771328,-0.010773907415568829,9.677363395690918
1622549463888,0.040701430290937424,-0.013168109580874443,9.732429504394531
1622549463954,0.05626374110579491,-0.013168109580874443,
1622549463955,,,9.734824180603027
1622549464021,0.06584054976701736,0.0071826050989329815,9.694122314453125
1622549464088,0.04908113554120064,-0.0011971008498221636,9.690531730651855
1622549464156,0.05386953800916672,-0.008379706181585789,9.654618263244629
1622549464221,0.06344634294509888,,
1622549464222,,-0.004788403399288654,9.72285270690918
1622549464288,0.04908113554120064,-0.009576806798577309,
1622549464289,,,9.728838920593262
1622549464354,0.05386953800916672,,
1622549464355,,-0.016759412363171577,9.715670585632324
1622549464421,0.040701430290937424,,
1622549464422,,-0.011971008032560349,9.746794700622559
1622549464488,0.05626374110579491,0.0011971008498221636,9.684545516967773
1622549464554,0.07182604819536209,,
1622549464556,,0.0011971008498221636,9.645041465759277
1622549464621,0.05626374110579491,-0.017956512048840523,9.703699111938477
1622549464688,0.040701430290937424,-0.010773907415568829,9.738415718078613
1622549464755,0.05626374110579491,-0.009576806798577309,
1622549464756,,,9.743204116821289
1622549464821,0.05506663769483566,-0.013168109580874443,
1622549464823,,,9.713275909423828
1622549464888,0.043095629662275314,-0.017956512048840523,9.648633003234863
1622549464954,0.06584054976701736,,
1622549464955,,-0.010773907415568829,9.658209800720215
1622549465021,0.0454898327589035,-0.0035913025494664907,9.724050521850586
1622549465088,0.04668693244457245,-0.014365210197865963,9.709685325622559
1622549465155,0.05746084079146385,0.004788403399288654,9.744400978088379
1622549465221,0.04429273307323456,,
1622549465222,,-0.010773907415568829,9.709685325622559
1622549465288,0.05985504388809204,-0.0035913025494664907,
1622549465289,,,9.66539192199707
1622549465354,0.06703764945268631,,
1622549465356,,-0.0035913025494664907,
1622549465357,,,9.666589736938477
1622549465421,0.05746084079146385,-0.013168109580874443,
1622549465422,,,9.691728591918945
1622549465488,0.05147533491253853,,
1622549465489,,-0.004788403399288654,9.730035781860352
1622549465555,0.04908113554120064,-0.004788403399288654,9.728838920593262
1622549465621,0.05386953800916672,-0.021547814831137657,9.696516990661621
1622549465688,0.05985504388809204,-0.008379706181585789,
1622549465689,,,9.653421401977539
1622549465754,0.06584054976701736,-0.0071826050989329815,9.666589736938477
1622549465821,0.0454898327589035,-0.016759412363171577,9.676166534423828
1622549465888,0.05147533491253853,-0.0035913025494664907,
1622549465890,,,9.710882186889648
1622549465955,0.05027823522686958,-0.004788403399288654,9.733627319335938
1622549466021,0.035913024097681046,-0.010773907415568829,9.708487510681152
1622549466088,0.06224924325942993,-0.0035913025494664907,9.658209800720215
1622549466154,0.05626374110579491,,
1622549466156,,-0.020350715145468712,9.673771858215332
1622549466221,0.04189852997660637,-0.015562310814857483,9.695320129394531
1622549466288,0.061052143573760986,0.002394201699644327,9.732429504394531
1622549466354,0.04429273307323456,,
1622549466355,,-0.008379706181585789,9.739612579345703
1622549466421,0.05506663769483566,,
1622549466423,,-0.011971008032560349,9.692925453186035
1622549466488,0.0586579404771328,0.0011971008498221636,9.653421401977539
1622549466555,0.04668693244457245,-0.015562310814857483,9.66539192199707
1622549466621,0.06344634294509888,-0.017956512048840523,
1622549466622,,,9.676166534423828
1622549466688,0.04908113554120064,-0.017956512048840523,
1622549466690,,,9.739612579345703
1622549466755,0.0347159244120121,-0.011971008032560349,9.745597839355469
1622549466822,0.04908113554120064,-0.011971008032560349,9.701305389404297
1622549466888,0.06344634294509888,,
1622549466889,,-0.008379706181585789,9.673771858215332
1622549466954,0.0454898327589035,,
1622549466955,,-0.017956512048840523,9.66539192199707
1622549467021,0.05027823522686958,,
1622549467022,,-0.010773907415568829,9.695320129394531
1622549467088,0.0586579404771328,-0.010773907415568829,9.742006301879883
1622549467155,0.0454898327589035,,
1622549467156,,-0.009576806798577309,9.730035781860352
1622549467221,0.04908113554120064,0.0011971008498221636,
1622549467223,,,9.731232643127441
1622549467288,0.05626374110579491,,
1622549467289,,-0.013168109580874443,9.682151794433594
1622549467354,0.04668693244457245,,
1622549467355,,-0.014365210197865963,9.648633003234863
1622549467421,0.05267243832349777,-0.019153613597154617,
1622549467422,,,9.713275909423828
1622549467488,0.04429273307323456,-0.011971008032560349,
1622549467490,,,9.733627319335938
1622549467555,0.05267243832349777,,
1622549467556,,-0.0035913025494664907,9.725247383117676
1622549467621,0.05267243832349777,-0.0035913025494664907,9.706093788146973
1622549467688,0.04908113554120064,-0.015562310814857483,9.684545516967773
1622549467755,0.0454898327589035,,
1622549467757,,-0.009576806798577309,9.66419506072998
1622549467821,0.05746084079146385,-0.0035913025494664907,
1622549467822,,,9.704896926879883
1622549467888,0.04189852997660637,-0.016759412363171577,9.742006301879883
1622549467955,0.05506663769483566,,
1622549467956,,-0.004788403399288654,9.742006301879883
1622549468025,0.05746084079146385,-0.0035913025494664907,
1622549468027,,,9.734824180603027
1622549468088,0.043095629662275314,-0.011971008032560349,9.68933391571045
1622549468154,0.06584054976701736,,
1622549468155,,-0.011971008032560349,9.66299819946289
1622549468221,0.04908113554120064,,
1622549468222,,-0.019153613597154617,9.694122314453125
1622549468288,0.040701430290937424,-0.009576806798577309,9.744400978088379
1622549468355,0.05985504388809204,-0.005985504016280174,9.726444244384766
1622549468421,0.05746084079146385,,
1622549468422,,-0.004788403399288654,9.6989107131958
1622549468488,0.05626374110579491,-0.021547814831137657,
1622549468489,,,9.670180320739746
1622549468554,0.06224924325942993,,
1622549468555,,-0.010773907415568829,9.667786598205566
1622549468621,0.04668693244457245,,
1622549468622,,-0.011971008032560349,9.677363395690918
1622549468688,0.05027823522686958,-0.013168109580874443,9.706093788146973
1622549468754,0.05506663769483566,,
1622549468755,,-0.0011971008498221636,9.738415718078613
1622549468822,0.03950432687997818,-0.014365210197865963,
1622549468824,,,9.728838920593262
1622549468888,0.05267243832349777,-0.0071826050989329815,9.673771858215332
1622549468955,0.061052143573760986,,
1622549468956,,-0.008379706181585789,9.668983459472656
1622549469021,0.043095629662275314,-0.014365210197865963,9.6989107131958
1622549469087,0.05027823522686958,,
1622549469088,,-0.009576806798577309,
1622549469090,,,9.736021041870117
1622549469154,0.06823474913835526,0.0011971008498221636,9.740809440612793
1622549469221,0.0586579404771328,-0.008379706181585789,9.700108528137207
1622549469288,0.06464344263076782,-0.0071826050989329815,9.648633003234863
1622549469354,0.05027823522686958,-0.016759412363171577,
1622549469356,,,9.670180320739746
1622549469421,0.04429273307323456,-0.005985504016280174,9.677363395690918
1622549469487,0.061052143573760986,,
1622549469488,,-0.002394201699644327,9.71926212310791
1622549469555,0.05027823522686958,-0.009576806798577309,9.737217903137207
1622549469621,0.05746084079146385,,
1622549469623,,-0.005985504016280174,9.713275909423828
1622549469688,0.05985504388809204,0.0035913025494664907,9.672574996948242
1622549469755,0.05746084079146385,-0.0071826050989329815,9.66539192199707
1622549469821,0.04908113554120064,-0.009576806798577309,9.691728591918945
1622549469888,0.05147533491253853,-0.008379706181585789,
1622549469890,,,9.750386238098145
1622549469955,0.05506663769483566,-0.002394201699644327,9.72285270690918
1622549470021,0.05626374110579491,-0.004788403399288654,9.727641105651855
1622549470088,0.06344634294509888,,
1622549470089,,-0.002394201699644327,9.690531730651855
1622549470154,0.05386953800916672,,
1622549470155,,-0.016759412363171577,9.659406661987305
1622549470221,0.05386953800916672,,
1622549470222,,-0.010773907415568829,9.676166534423828
1622549470288,0.05506663769483566,-0.011971008032560349,
1622549470289,,,9.742006301879883
1622549470355,0.05147533491253853,-0.010773907415568829,9.759963035583496
1622549470421,0.05027823522686958,-0.004788403399288654,9.694122314453125
1622549470488,0.06464344263076782,-0.011971008032560349,9.667786598205566
1622549470554,0.05626374110579491,,
1622549470555,,-0.0071826050989329815,9.679757118225098
1622549470621,0.05506663769483566,-0.009576806798577309,9.703699111938477
1622549470688,0.05147533491253853,-0.0071826050989329815,9.739612579345703
1622549470755,0.040701430290937424,-0.0035913025494664907,9.750386238098145
1622549470821,0.061052143573760986,,
1622549470822,,-0.004788403399288654,9.731232643127441
1622549470889,0.05746084079146385,-0.008379706181585789,9.684545516967773
1622549470955,0.05267243832349777,-0.0035913025494664907,9.646238327026367
1622549471021,0.05746084079146385,-0.013168109580874443,
1622549471022,,,9.692925453186035
1622549471088,0.05386953800916672,-0.002394201699644327,9.734824180603027
1622549471154,0.0454898327589035,-0.011971008032560349,9.731232643127441
1622549471221,0.05626374110579491,-0.008379706181585789,9.710882186889648
1622549471288,0.05027823522686958,0.002394201699644327,9.674968719482422
1622549471355,0.05626374110579491,-0.021547814831137657,9.667786598205566
1622549471422,0.05626374110579491,-0.015562310814857483,
1622549471423,,,9.714473724365234
1622549471488,0.04908113554120064,-0.008379706181585789,9.715670585632324
1622549471555,0.047884032130241394,-0.008379706181585789,9.724050521850586
1622549471621,0.05386953800916672,-0.005985504016280174,9.712079048156738
1622549471689,0.05386953800916672,-0.010773907415568829,9.68933391571045
1622549471754,0.0586579404771328,-0.009576806798577309,9.66299819946289
1622549471822,0.0694318488240242,-0.010773907415568829,
1622549471823,,,9.691728591918945
1622549471888,0.04908113554120064,-0.0071826050989329815,9.730035781860352
1622549471954,0.0586579404771328,,
1622549471955,,0.0011971008498221636,9.736021041870117
1622549472021,0.05985504388809204,,
1622549472022,,-0.004788403399288654,9.696516990661621
1622549472088,0.05147533491253853,-0.009576806798577309,9.666589736938477
1622549472155,0.06464344263076782,0.0035913025494664907,9.668983459472656
1622549472221,0.04908113554120064,-0.013168109580874443,9.678560256958008
1622549472288,0.04908113554120064,-0.017956512048840523,9.714473724365234
1622549472355,0.05506663769483566,-0.002394201699644327,
1622549472356,,,9.742006301879883
1622549472422,0.04668693244457245,-0.004788403399288654,9.726444244384766
1622549472488,0.04429273307323456,-0.016759412363171577,9.659406661987305
1622549472555,0.06464344263076782,-0.016759412363171577,9.660603523254395
1622549472621,0.047884032130241394,,
1622549472622,,-0.011971008032560349,9.703699111938477
1622549472688,0.05027823522686958,-0.017956512048840523,9.732429504394531
1622549472755,0.04668693244457245,-0.009576806798577309,9.744400978088379
1622549472822,0.047884032130241394,-0.009576806798577309,9.734824180603027
1622549472888,0.05746084079146385,-0.0071826050989329815,9.68574333190918
1622549472954,0.0586579404771328,-0.013168109580874443,
1622549472955,,,9.659406661987305
1622549473021,0.05147533491253853,-0.016759412363171577,9.676166534423828
1622549473088,0.047884032130241394,-0.008379706181585789,9.733627319335938
1622549473154,0.043095629662275314,-0.0011971008498221636,9.737217903137207
1622549473221,0.04908113554120064,-0.0035913025494664907,9.709685325622559
1622549473288,0.05626374110579491,-0.0035913025494664907,9.679757118225098
1622549473354,0.05985504388809204,,
1622549473355,,-0.013168109580874443,9.672574996948242
1622549473421,0.05386953800916672,-0.016759412363171577,9.694122314453125
1622549473488,0.05027823522686958,-0.009576806798577309,9.706093788146973
1622549473554,0.05386953800916672,,
1622549473555,,-0.013168109580874443,9.734824180603027
1622549473621,0.05267243832349777,,
1622549473622,,-0.013168109580874443,9.718064308166504
1622549473688,0.05386953800916672,-0.010773907415568829,9.68813705444336
1622549473754,0.047884032130241394,-0.020350715145468712,9.670180320739746
1622549473821,0.05386953800916672,-0.014365210197865963,9.676166534423828
1622549473888,0.047884032130241394,-0.0071826050989329815,9.710882186889648
1622549473954,0.04189852997660637,-0.0071826050989329815,9.740809440612793
1622549474021,0.05267243832349777,-0.0071826050989329815,9.712079048156738
1622549474088,0.05386953800916672,-0.0071826050989329815,9.680954933166504
1622549474154,0.061052143573760986,,
1622549474155,,-0.014365210197865963,9.66419506072998
1622549474221,0.05746084079146385,,
1622549474222,,-0.011971008032560349,9.659406661987305
1622549474287,0.05506663769483566,,
1622549474288,,-0.015562310814857483,9.710882186889648
1622549474354,0.06224924325942993,-0.013168109580874443,9.734824180603027
1622549474421,0.04429273307323456,-0.013168109580874443,9.732429504394531
1622549474488,0.0586579404771328,-0.013168109580874443,9.668983459472656
1622549474554,0.06464344263076782,-0.016759412363171577,
1622549474555,,,9.641449928283691
1622549474621,0.05386953800916672,-0.0035913025494664907,9.691728591918945
1622549474688,0.05027823522686958,-0.004788403399288654,9.744400978088379
1622549474754,0.05027823522686958,-0.005985504016280174,9.731232643127441
1622549474821,0.05626374110579491,-0.004788403399288654,9.700108528137207
1622549474887,0.05386953800916672,,
1622549474888,,-0.013168109580874443,9.690531730651855
1622549474954,0.05746084079146385,-0.0035913025494664907,
1622549474955,,,9.639056205749512
1622549475021,0.05386953800916672,-0.011971008032560349,9.6618013381958
1622549475088,0.05027823522686958,-0.016759412363171577,9.710882186889648
1622549475154,0.05147533491253853,0.0011971008498221636,9.736021041870117
1622549475222,0.05267243832349777,-0.009576806798577309,9.713275909423828
1622549475288,0.05027823522686958,-0.010773907415568829,9.655815124511719
1622549475354,0.06584054976701736,-0.013168109580874443,
1622549475355,,,9.666589736938477
1622549475421,0.05626374110579491,-0.014365210197865963,9.691728591918945
1622549475488,0.05506663769483566,-0.002394201699644327,9.726444244384766
1622549475554,0.04908113554120064,-0.004788403399288654,9.726444244384766
1622549475621,0.05027823522686958,-0.009576806798577309,9.724050521850586
1622549475688,0.0586579404771328,-0.010773907415568829,9.671378135681152
1622549475754,0.05147533491253853,,
1622549475755,,-0.004788403399288654,9.672574996948242
1622549475821,0.04668693244457245,-0.014365210197865963,9.66299819946289
1622549475888,0.04668693244457245,-0.009576806798577309,9.72165584564209
1622549475955,0.0454898327589035,-0.0011971008498221636,9.746794700622559
1622549476021,0.047884032130241394,-0.005985504016280174,9.715670585632324
1622549476088,0.047884032130241394,-0.004788403399288654,9.6618013381958
1622549476154,0.05746084079146385,,
1622549476155,,-0.015562310814857483,9.659406661987305
1622549476221,0.04429273307323456,-0.010773907415568829,9.694122314453125
1622549476288,0.0454898327589035,-0.017956512048840523,9.697713851928711
1622549476354,0.05147533491253853,-0.010773907415568829,
1622549476355,,,9.738415718078613
1622549476421,0.047884032130241394,-0.0071826050989329815,9.718064308166504
1622549476488,0.0586579404771328,-0.0071826050989329815,
1622549476489,,,9.670180320739746
1622549476554,0.05506663769483566,,
1622549476555,,-0.0071826050989329815,9.651026725769043
1622549476621,0.05386953800916672,-0.014365210197865963,9.6618013381958
1622549476688,0.05027823522686958,-0.013168109580874443,9.730035781860352
1622549476755,0.04429273307323456,-0.0071826050989329815,9.742006301879883
1622549476821,0.05027823522686958,-0.004788403399288654,9.68574333190918
1622549476888,0.06224924325942993,-0.0035913025494664907,
1622549476889,,,9.653421401977539
1622549476954,0.05985504388809204,-0.013168109580874443,
1622549476956,,,9.667786598205566
1622549477021,0.06823474913835526,-0.013168109580874443,9.659406661987305
1622549477088,0.047884032130241394,-0.015562310814857483,9.71926212310791
1622549477154,0.04429273307323456,,
1622549477155,,-0.010773907415568829,9.745597839355469
1622549477221,0.04668693244457245,0.004788403399288654,9.714473724365234
1622549477288,0.05626374110579491,-0.010773907415568829,9.671378135681152
1622549477354,0.06584054976701736,,
1622549477355,,-0.005985504016280174,9.6618013381958
1622549477421,0.05746084079146385,-0.017956512048840523,
1622549477429,,,9.680954933166504
1622549477488,0.04668693244457245,,9.72165584564209
1622549477489,,-0.014365210197865963,
1622549477554,0.0454898327589035,,
1622549477555,,-0.008379706181585789,9.736021041870117
1622549477621,0.0586579404771328,-0.010773907415568829,9.702502250671387
1622549477688,0.05147533491253853,-0.0035913025494664907,9.694122314453125
1622549477754,0.0586579404771328,-0.017956512048840523,9.646238327026367
1622549477821,0.0586579404771328,,
1622549477828,,-0.016759412363171577,
1622549477829,,,9.672574996948242
1622549477897,0.04189852997660637,-0.017956512048840523,9.710882186889648
1622549477955,0.05506663769483566,-0.005985504016280174,9.732429504394531
1622549478028,0.04189852997660637,-0.005985504016280174,9.716867446899414
1622549478091,0.06464344263076782,,
1622549478092,,-0.009576806798577309,9.683348655700684
1622549478161,0.05267243832349777,-0.016759412363171577,9.653421401977539
1622549478225,0.05985504388809204,-0.0071826050989329815,9.690531730651855
1622549478292,0.0454898327589035,-0.013168109580874443,9.745597839355469
1622549478361,0.04668693244457245,-0.010773907415568829,9.734824180603027
1622549478421,0.03950432687997818,,
1622549478422,,-0.011971008032560349,9.737217903137207
1622549478493,0.04908113554120064,-0.014365210197865963,9.703699111938477
1622549478558,0.0586579404771328,-0.009576806798577309,9.648633003234863
1622549478625,0.05027823522686958,-0.013168109580874443,9.66419506072998
1622549478691,0.05027823522686958,-0.017956512048840523,9.727641105651855
1622549478758,0.0454898327589035,-0.016759412363171577,9.740809440612793
1622549478821,0.05626374110579491,-0.010773907415568829,
1622549478822,,,9.712079048156738
1622549478891,0.05746084079146385,-0.020350715145468712,
1622549478892,,,9.654618263244629
1622549478960,0.05506663769483566,,
1622549478961,,-0.015562310814857483,9.654618263244629
1622549479025,0.05267243832349777,-0.016759412363171577,9.704896926879883
1622549479091,0.05027823522686958,-0.008379706181585789,9.703699111938477
1622549479159,0.05506663769483566,,
1622549479160,,-0.009576806798577309,9.71926212310791
1622549479225,0.05027823522686958,-0.008379706181585789,9.726444244384766
1622549479293,0.047884032130241394,,
1622549479294,,-0.015562310814857483,9.68574333190918
1622549479359,0.061052143573760986,-0.0071826050989329815,
1622549479360,,,9.667786598205566
1622549479424,0.05027823522686958,-0.013168109580874443,9.694122314453125
1622549479491,0.047884032130241394,-0.014365210197865963,9.726444244384766
1622549479557,0.04668693244457245,-0.0011971008498221636,9.737217903137207
1622549479624,0.05626374110579491,-0.004788403399288654,9.703699111938477
1622549479694,0.05626374110579491,-0.014365210197865963,9.668983459472656
1622549479757,0.06224924325942993,-0.013168109580874443,9.653421401977539
1622549479825,0.061052143573760986,-0.020350715145468712,9.670180320739746
1622549479894,0.05386953800916672,-0.0071826050989329815,9.697713851928711
1622549479957,0.06344634294509888,-0.010773907415568829,9.728838920593262
1622549480027,0.04189852997660637,-0.004788403399288654,9.72165584564209
1622549480090,0.05267243832349777,-0.0071826050989329815,9.68933391571045
1622549480157,0.05626374110579491,-0.017956512048840523,9.6618013381958
1622549480224,0.05746084079146385,-0.014365210197865963,9.684545516967773
1622549480292,0.05027823522686958,,
1622549480293,,-0.014365210197865963,9.728838920593262
1622549480357,0.04668693244457245,-0.014365210197865963,9.746794700622559
1622549480426,0.05506663769483566,-0.0011971008498221636,9.713275909423828
1622549480490,0.05506663769483566,-0.0071826050989329815,9.65222454071045
1622549480557,0.05506663769483566,-0.010773907415568829,9.651026725769043
1622549480623,0.06464344263076782,-0.0035913025494664907,9.670180320739746
1622549480692,0.043095629662275314,-0.009576806798577309,9.703699111938477
1622549480758,0.04908113554120064,-0.010773907415568829,9.747992515563965
1622549480825,0.05147533491253853,-0.015562310814857483,9.712079048156738
1622549480890,0.05746084079146385,-0.014365210197865963,9.674968719482422
1622549480956,0.05027823522686958,-0.013168109580874443,9.672574996948242
1622549481024,0.05985504388809204,-0.013168109580874443,9.680954933166504
1622549481091,0.05267243832349777,-0.02274491637945175,
1622549481092,,,9.71926212310791
1622549481157,0.0454898327589035,-0.019153613597154617,9.727641105651855
1622549481223,0.05147533491253853,-0.0011971008498221636,9.716867446899414
1622549481289,0.05626374110579491,,
1622549481290,,-0.016759412363171577,9.707290649414062
1622549481356,0.05985504388809204,-0.008379706181585789,9.646238327026367
1622549481425,0.06224924325942993,-0.009576806798577309,9.667786598205566
1622549481489,0.05267243832349777,-0.010773907415568829,9.708487510681152
1622549481557,0.05506663769483566,-0.016759412363171577,9.731232643127441
1622549481624,0.05506663769483566,-0.016759412363171577,9.712079048156738
1622549481690,0.05985504388809204,-0.008379706181585789,9.68813705444336
1622549481756,0.0586579404771328,-0.013168109580874443,9.676166534423828
1622549481824,0.05147533491253853,-0.008379706181585789,9.68933391571045
1622549481890,0.047884032130241394,-0.015562310814857483,9.695320129394531
1622549481961,0.05267243832349777,-0.010773907415568829,9.731232643127441
1622549482021,0.05267243832349777,-0.008379706181585789,9.728838920593262
1622549482090,0.05506663769483566,-0.015562310814857483,9.714473724365234
1622549482158,0.06703764945268631,-0.013168109580874443,9.678560256958008
1622549482223,0.06344634294509888,-0.015562310814857483,9.672574996948242
1622549482290,0.0454898327589035,-0.021547814831137657,9.732429504394531
1622549482355,0.0454898327589035,-0.005985504016280174,9.759963035583496
1622549482423,0.05386953800916672,-0.009576806798577309,9.72285270690918
1622549482488,0.05267243832349777,-0.017956512048840523,9.668983459472656
1622549482555,0.05626374110579491,,
1622549482556,,-0.008379706181585789,9.657012939453125
1622549482624,0.06344634294509888,,
1622549482625,,-0.010773907415568829,9.670180320739746
1622549482691,0.05267243832349777,-0.0035913025494664907,9.716867446899414
1622549482754,0.05386953800916672,,
1622549482755,,-0.008379706181585789,9.731232643127441
1622549482825,0.05985504388809204,-0.005985504016280174,9.732429504394531
1622549482889,0.0586579404771328,-0.011971008032560349,9.684545516967773
1622549482958,0.05746084079146385,-0.016759412363171577,9.659406661987305
1622549483025,0.05267243832349777,-0.014365210197865963,9.682151794433594
1622549483088,0.05027823522686958,-0.0071826050989329815,
1622549483158,0.05506663769483566,-0.0071826050989329815,9.743204116821289
1622549483222,0.043095629662275314,-0.0071826050989329815,9.704896926879883
1622549483288,0.05626374110579491,-0.002394201699644327,9.692925453186035
1622549483357,0.061052143573760986,,
1622549483358,,-0.016759412363171577,9.6618013381958
1622549483422,0.04429273307323456,-0.017956512048840523,9.672574996948242
1622549483488,0.04908113554120064,,
1622549483490,,-0.013168109580874443,9.714473724365234
1622549483555,0.05506663769483566,-0.0071826050989329815,9.744400978088379
1622549483622,0.05267243832349777,-0.015562310814857483,9.727641105651855
1622549483689,0.06464344263076782,-0.013168109580874443,9.682151794433594
1622549483755,0.06584054976701736,-0.013168109580874443,
1622549483757,,,9.655815124511719
1622549483821,0.05267243832349777,-0.021547814831137657,9.670180320739746
1622549483888,0.05027823522686958,-0.011971008032560349,9.71926212310791
1622549483954,0.04908113554120064,,
1622549483955,,-0.0071826050989329815,9.734824180603027
1622549484024,0.05386953800916672,-0.005985504016280174,9.737217903137207
1622549484088,0.05985504388809204,-0.010773907415568829,9.691728591918945
1622549484154,0.05506663769483566,-0.015562310814857483,
1622549484155,,,9.660603523254395
1622549484221,0.06584054976701736,-0.015562310814857483,9.66299819946289
1622549484288,0.05267243832349777,,
1622549484290,,-0.011971008032560349,9.704896926879883
1622549484354,0.047884032130241394,,
1622549484355,,-0.0071826050989329815,9.75278091430664
1622549484421,0.0454898327589035,,
1622549484422,,0.0035913025494664907,9.72165584564209
1622549484488,0.05626374110579491,,
1622549484489,,-0.004788403399288654,9.657012939453125
1622549484554,0.0586579404771328,,
1622549484555,,-0.015562310814857483,9.645041465759277
1622549484621,0.05267243832349777,-0.011971008032560349,9.696516990661621
1622549484692,0.05746084079146385,,
1622549484693,,-0.011971008032560349,9.6989107131958
1622549484755,0.04429273307323456,-0.011971008032560349,9.746794700622559
1622549484822,0.061052143573760986,,
1622549484824,,-0.011971008032560349,9.720458984375
1622549484888,0.05027823522686958,-0.020350715145468712,9.6989107131958
1622549484954,0.05147533491253853,,
1622549484955,,-0.014365210197865963,9.649829864501953
1622549485022,0.05267243832349777,-0.008379706181585789,9.670180320739746
1622549485088,0.05267243832349777,,
1622549485090,,-0.0035913025494664907,9.731232643127441
1622549485155,0.047884032130241394,-0.0071826050989329815,9.734824180603027
1622549485221,0.047884032130241394,0.002394201699644327,9.68933391571045
1622549485287,0.06224924325942993,,
1622549485288,,-0.010773907415568829,9.670180320739746
1622549485355,0.06584054976701736,,
1622549485356,,-0.004788403399288654,
1622549485357,,,9.66299819946289
1622549485421,0.06344634294509888,-0.015562310814857483,9.6618013381958
1622549485488,0.040701430290937424,-0.0071826050989329815,9.691728591918945
1622549485554,0.05386953800916672,,
1622549485555,,-0.005985504016280174,9.725247383117676
1622549485621,0.05626374110579491,,
1622549485622,,-0.002394201699644327,9.730035781860352
1622549485687,0.04668693244457245,,
1622549485688,,-0.013168109580874443,9.695320129394531
1622549485754,0.05147533491253853,-0.010773907415568829,
1622549485755,,,9.66539192199707
1622549485822,0.05746084079146385,-0.026336219161748886,9.672574996948242
1622549485888,0.04429273307323456,,
1622549485889,,-0.015562310814857483,9.72285270690918
1622549485954,0.05027823522686958,-0.0035913025494664907,9.746794700622559
1622549486021,0.04908113554120064,-0.005985504016280174,9.745597839355469
1622549486089,0.05386953800916672,-0.0035913025494664907,9.690531730651855
1622549486154,0.07062894850969315,,
1622549486156,,-0.011971008032560349,9.66299819946289
1622549486221,0.05386953800916672,,
1622549486222,,-0.016759412363171577,9.6618013381958
1622549486288,0.05626374110579491,-0.021547814831137657,9.715670585632324
1622549486354,0.05386953800916672,,
1622549486355,,0.0071826050989329815,9.736021041870117
1622549486421,0.047884032130241394,-0.011971008032560349,9.728838920593262
1622549486488,0.04908113554120064,,
1622549486489,,-0.0071826050989329815,9.672574996948242
1622549486555,0.06584054976701736,-0.017956512048840523,9.639056205749512
1622549486621,0.05386953800916672,-0.019153613597154617,
1622549486622,,,9.68933391571045
1622549486688,0.04189852997660637,,
1622549486690,,-0.02274491637945175,9.732429504394531
1622549486756,0.05267243832349777,-0.005985504016280174,9.720458984375
1622549486821,0.03232172131538391,-0.0071826050989329815,9.743204116821289
1622549486889,0.05746084079146385,-0.004788403399288654,
1622549486890,,,9.678560256958008
1622549486955,0.05626374110579491,-0.009576806798577309,9.666589736938477
1622549487022,0.04189852997660637,-0.010773907415568829,9.677363395690918
1622549487088,0.05147533491253853,-0.014365210197865963,9.707290649414062
1622549487155,0.05027823522686958,,
1622549487156,,-0.0011971008498221636,9.72165584564209
1622549487221,0.043095629662275314,,
1622549487223,,-0.016759412363171577,9.71926212310791
1622549487288,0.05267243832349777,-0.009576806798577309,9.683348655700684
1622549487354,0.061052143573760986,-0.009576806798577309,9.668983459472656
1622549487422,0.061052143573760986,-0.014365210197865963,
1622549487423,,,9.66299819946289
1622549487488,0.05746084079146385,,
1622549487490,,-0.008379706181585789,9.683348655700684
1622549487555,0.05027823522686958,-0.008379706181585789,9.740809440612793
1622549487621,0.05147533491253853,-0.011971008032560349,9.727641105651855
1622549487688,0.0586579404771328,-0.0011971008498221636,9.694122314453125
1622549487755,0.06344634294509888,-0.009576806798577309,9.65222454071045
1622549487821,0.05147533491253853,-0.014365210197865963,
1622549487822,,,9.672574996948242
1622549487888,0.05985504388809204,,
1622549487889,,-0.002394201699644327,9.706093788146973
1622549487955,0.0586579404771328,,
1622549487956,,-0.011971008032560349,9.731232643127441
1622549488022,0.04429273307323456,,
1622549488024,,-0.004788403399288654,9.71926212310791
1622549488088,0.05626374110579491,,
1622549488089,,-0.0011971008498221636,9.657012939453125
1622549488155,0.05506663769483566,-0.011971008032560349,9.65222454071045
1622549488221,0.05746084079146385,,
1622549488222,,-0.013168109580874443,9.654618263244629
1622549488288,0.06584054976701736,,
1622549488290,,-0.0071826050989329815,9.697713851928711
1622549488354,0.04189852997660637,,
1622549488355,,-0.026336219161748886,9.747992515563965
1622549488422,0.05267243832349777,-0.0011971008498221636,9.727641105651855
1622549488488,0.06464344263076782,,
1622549488489,,-0.0011971008498221636,9.692925453186035
1622549488554,0.05386953800916672,,
1622549488556,,-0.010773907415568829,9.670180320739746
1622549488622,0.05267243832349777,,
1622549488623,,-0.023942016065120697,9.676166534423828
1622549488688,0.05267243832349777,,
1622549488689,,-0.011971008032560349,9.733627319335938
1622549488755,0.04189852997660637,-0.0071826050989329815,
1622549488756,,,9.738415718078613
1622549488823,0.05027823522686958,,
1622549488825,,-0.015562310814857483,9.692925453186035
1622549488888,0.05147533491253853,,
1622549488889,,0.005985504016280174,9.702502250671387
1622549488955,0.04668693244457245,-0.016759412363171577,
1622549488956,,,9.679757118225098
1622549489022,0.06584054976701736,-0.004788403399288654,9.657012939453125
1622549489088,0.05506663769483566,,
1622549489090,,-0.020350715145468712,9.694122314453125
1622549489155,0.03950432687997818,-0.0011971008498221636,9.736021041870117
1622549489222,0.05626374110579491,-0.0035913025494664907,9.718064308166504
1622549489288,0.05386953800916672,-0.005985504016280174,
1622549489289,,,9.691728591918945
1622549489355,0.04908113554120064,-0.008379706181585789,
1622549489357,,,9.671378135681152
1622549489421,0.06344634294509888,-0.005985504016280174,9.691728591918945
1622549489488,0.05147533491253853,-0.0071826050989329815,9.720458984375
1622549489554,0.05626374110579491,,
1622549489555,,-0.013168109580874443,9.710882186889648
1622549489622,0.05027823522686958,0.0035913025494664907,
1622549489624,,,9.730035781860352
1622549489688,0.05147533491253853,-0.011971008032560349,9.710882186889648
1622549489755,0.05746084079146385,-0.004788403399288654,9.672574996948242
1622549489821,0.0694318488240242,,
1622549489822,,-0.005985504016280174,9.672574996948242
1622549489888,0.040701430290937424,-0.019153613597154617,
1622549489889,,,9.715670585632324
1622549489955,0.047884032130241394,-0.014365210197865963,9.740809440612793
1622549490022,0.06224924325942993,,
1622549490023,,-0.0011971008498221636,9.746794700622559
1622549490088,0.035913024097681046,-0.010773907415568829,
1622549490089,,,9.684545516967773
1622549490155,0.05626374110579491,,
1622549490156,,-0.002394201699644327,
1622549490157,,,9.641449928283691
1622549490221,0.05626374110579491,,
1622549490222,,-0.017956512048840523,9.696516990661621
1622549490288,0.047884032130241394,,
1622549490289,,-0.016759412363171577,9.700108528137207
1622549490355,0.05746084079146385,-0.002394201699644327,
1622549490356,,,9.739612579345703
1622549490422,0.04908113554120064,,
1622549490424,,-0.009576806798577309,9.745597839355469
1622549490488,0.05386953800916672,-0.005985504016280174,9.68813705444336
1622549490555,0.05626374110579491,-0.014365210197865963,9.651026725769043
1622549490621,0.05147533491253853,,
1622549490622,,-0.002394201699644327,9.691728591918945
1622549490688,0.047884032130241394,,
1622549490690,,-0.014365210197865963,9.707290649414062
1622549490755,0.05746084079146385,-0.0071826050989329815,9.72285270690918
1622549490821,0.05506663769483566,-0.010773907415568829,9.725247383117676
1622549490888,0.047884032130241394,,
1622549490889,,0.0011971008498221636,9.659406661987305
1622549490955,0.05626374110579491,,
1622549490956,,-0.013168109580874443,9.671378135681152
1622549491021,0.04668693244457245,,
1622549491022,,-0.013168109580874443,9.676166534423828
1622549491089,0.04908113554120064,-0.002394201699644327,
1622549491090,,,9.680954933166504
1622549491154,0.05626374110579491,,
1622549491155,,-0.011971008032560349,9.734824180603027
1622549491221,0.035913024097681046,-0.0071826050989329815,9.739612579345703
1622549491288,0.05985504388809204,-0.008379706181585789,9.680954933166504
1622549491354,0.05985504388809204,-0.004788403399288654,9.677363395690918
1622549491421,0.05386953800916672,-0.0071826050989329815,
1622549491422,,,9.676166534423828
1622549491488,0.05746084079146385,,
1622549491490,,-0.010773907415568829,9.692925453186035
1622549491554,0.05027823522686958,,
1622549491555,,-0.004788403399288654,9.728838920593262
1622549491621,0.04429273307323456,,
1622549491622,,-0.013168109580874443,9.750386238098145
1622549491689,0.05386953800916672,-0.0035913025494664907,9.733627319335938
1622549491754,0.05147533491253853,,
1622549491756,,-0.013168109580874443,9.672574996948242
1622549491822,0.05386953800916672,-0.011971008032560349,9.647436141967773
1622549491888,0.06344634294509888,-0.014365210197865963,9.690531730651855
1622549491954,0.047884032130241394,,
1622549491955,,-0.014365210197865963,9.761159896850586
1622549492021,0.047884032130241394,-0.0071826050989329815,9.714473724365234
1622549492088,0.06703764945268631,0.011971008032560349,9.68694019317627
1622549492154,0.05626374110579491,,
1622549492155,,-0.019153613597154617,9.66539192199707
1622549492221,0.05746084079146385,,
1622549492222,,-0.014365210197865963,9.68933391571045
1622549492288,0.04668693244457245,-0.008379706181585789,9.740809440612793
1622549492354,0.040701430290937424,,
1622549492355,,-0.017956512048840523,9.739612579345703
1622549492421,0.05147533491253853,-0.004788403399288654,9.72285270690918
1622549492488,0.04429273307323456,,
1622549492489,,-0.004788403399288654,9.713275909423828
1622549492555,0.05147533491253853,-0.021547814831137657,9.676166534423828
1622549492621,0.0586579404771328,,
1622549492622,,-0.010773907415568829,9.660603523254395
1622549492688,0.06464344263076782,,
1622549492689,,-0.008379706181585789,9.710882186889648
1622549492754,0.03950432687997818,,
1622549492755,,-0.002394201699644327,9.738415718078613
1622549492821,0.04189852997660637,,
1622549492823,,-0.015562310814857483,9.718064308166504
1622549492888,0.061052143573760986,-0.013168109580874443,9.690531730651855
1622549492954,0.04668693244457245,,
1622549492955,,-0.019153613597154617,9.660603523254395
1622549493021,0.06823474913835526,,
1622549493022,,-0.010773907415568829,9.66299819946289
1622549493088,0.05267243832349777,,
1622549493090,,-0.004788403399288654,9.68694019317627
1622549493155,0.047884032130241394,-0.011971008032560349,
1622549493156,,,9.727641105651855
1622549493221,0.0586579404771328,-0.0035913025494664907,
1622549493222,,,9.726444244384766
1622549493288,0.04908113554120064,-0.013168109580874443,9.709685325622559
1622549493354,0.05267243832349777,,
1622549493356,,-0.017956512048840523,
1622549493357,,,9.668983459472656
1622549493421,0.06464344263076782,,
1622549493422,,-0.0071826050989329815,9.66299819946289
1622549493488,0.05147533491253853,-0.009576806798577309,9.701305389404297
1622549493554,0.04429273307323456,,
1622549493555,,-0.004788403399288654,9.740809440612793
