timestamp,AccX,AccY,AccZ
1622551975183,-0.5722141861915588,,
1622551975184,,1.6292542219161987,9.66419506072998
1622551975259,-1.3407529592514038,1.9572598934173584,9.543288230895996
1622551975305,-0.4596867263317108,1.4628572463989258,9.635464668273926
1622551975374,-0.8858546018600464,1.7944542169570923,9.23682975769043
1622551975434,-0.507570743560791,1.6412252187728882,9.75397777557373
1622551975500,-0.7398083209991455,1.7178397178649902,9.241618156433105
1622551975573,-0.7266402244567871,1.6543933153152466,9.649829864501953
1622551975641,-0.628477931022644,,
1622551975642,,1.698686122894287,9.36013126373291
1622551975710,-0.8355764150619507,1.7561469078063965,9.101557731628418
1622551975776,-0.5351040959358215,,
1622551975777,,1.5598224401474,9.59715747833252
1622551975843,-0.871489405632019,1.823184609413147,9.157821655273438
1622551975910,-0.5710170865058899,1.7046716213226318,9.133879661560059
1622551975976,-0.6655880808830261,1.8124107122421265,9.320627212524414
1622551976043,-0.5985504388809204,1.9129672050476074,8.856152534484863
1622551976121,-0.19393034279346466,1.3275848627090454,9.425971984863281
1622551976174,-2.337938070297241,2.121262788772583,9.7791166305542
1622551976240,-0.8870517015457153,1.533486247062683,9.726444244384766
1622551976306,-0.3794809579849243,1.2665326595306396,9.338583946228027
1622551976379,-0.4800374507904053,,
1622551976384,,1.3000515699386597,9.027337074279785
1622551976438,-0.7829039692878723,1.1456254720687866,9.86770248413086
1622551976522,-0.4429273009300232,1.237802267074585,9.006986618041992
1622551976589,-0.05506663769483566,0.6919242739677429,10.052056312561035
1622551976645,-0.5099649429321289,0.9864110946655273,
1622551976646,,,8.857349395751953
1622551976709,0.11971008777618408,0.33279404044151306,9.320627212524414
1622551976767,-0.30885201692581177,,
1622551976768,,0.12449848651885986,9.126696586608887
1622551976847,-0.6524199843406677,-0.31842881441116333,9.909601211547852
1622551976902,-0.9397241473197937,-0.24420857429504395,8.32104778289795
1622551976967,-2.1057004928588867,-1.8195933103561401,6.809109687805176
1622551977034,0.9301473498344421,-4.978742599487305,7.882909297943115
1622551977100,-0.7038952708244324,,
1622551977101,,-5.310339450836182,10.435128211975098
1622551977167,-1.1336544752120972,,
1622551977168,,-5.400122165679932,4.699818134307861
1622551977234,0.545877993106842,,
1622551977235,,-7.890091896057129,3.667917013168335
1622551977301,-0.19632454216480255,-8.98543930053711,8.063671112060547
1622551977367,-1.0211269855499268,-9.53849983215332,3.3686418533325195
1622551977434,0.4429273009300232,-10.427945137023926,6.460753440856934
1622551977500,-2.189497470855713,-9.7791166305542,
1622551977501,,,1.680729627609253
1622551977567,0.20231004059314728,,
1622551977568,,-9.908403396606445,3.1064767837524414
1622551977634,-1.0594342947006226,-9.75517463684082,0.6919242739677429
1622551977701,-1.3299790620803833,-10.686519622802734,0.751779317855835
1622551977767,-2.321178436279297,,
1622551977768,,-12.168530464172363,-0.7015010714530945
1622551977834,-1.2306196689605713,-11.738770484924316,-0.18914192914962769
1622551977901,-3.1244332790374756,-10.229227066040039,
1622551977902,,,-0.9385270476341248
1622551977967,-2.9161376953125,-8.908824920654297,-0.47405192255973816
1622551978034,-1.3108254671096802,-7.454347133636475,-1.5143325328826904
1622551978101,-3.360262155532837,-8.83939266204834,
1622551978102,,,-2.0171148777008057
1622551978167,-2.940079689025879,-9.769539833068848,-1.742978811264038
1622551978237,-3.4141316413879395,-8.57004451751709,-1.337161660194397
1622551978301,-3.7026329040527344,-10.393229484558105,-3.754108190536499
1622551978369,1.313219666481018,-7.363367557525635,
1622551978370,,,-1.0235211849212646
1622551978435,-2.691082715988159,-11.671732902526855,-2.1380221843719482
1622551978505,1.0450690984725952,-5.700594425201416,-1.88782799243927
1622551978569,-2.2445640563964844,-10.049661636352539,-0.5722141861915588
1622551978638,-0.9600749015808105,-11.645397186279297,-2.450465440750122
1622551978704,-2.5306711196899414,,
1622551978705,,-11.257535934448242,-3.090914487838745
1622551978770,-5.372588634490967,,
1622551978771,,-8.754398345947266,-7.47110652923584
1622551978838,7.8541789054870605,-6.497863292694092,
1622551978839,,,-2.406172752380371
1622551978905,-9.97065258026123,-14.232332229614258,
1622551978906,,,-4.211400985717773
1622551978970,-2.4791958332061768,,
1622551978971,,-9.319430351257324,-3.09689998626709
1622551979035,-0.0802057534456253,-13.412318229675293,-1.923741102218628
1622551979102,-17.864336013793945,,
1622551979103,,-7.222109317779541,-2.24935245513916
1622551979172,0.3758896589279175,-5.831078052520752,-0.14006079733371735
1622551979239,0.15442600846290588,-6.937199592590332,2.030282974243164
1622551979302,-0.6859387755393982,,
1622551979303,,-9.672574996948242,-1.7597382068634033
1622551979370,-0.3423708379268646,-9.708487510681152,3.4596214294433594
1622551979439,-0.7553706169128418,-12.204442977905273,0.15921440720558167
1622551979501,0.8331822156906128,,
1622551979502,,-11.513715744018555,0.019153613597154617
1622551979568,1.1240776777267456,,
1622551979569,,-9.362525939941406,0.25737667083740234
1622551979636,0.10295066982507706,,
1622551979637,,-11.59631633758545,0.5602431893348694
1622551979701,0.669179379940033,-9.635464668273926,-0.933738648891449
1622551979770,0.5482721924781799,,
1622551979771,,-9.679757118225098,1.4844050407409668
1622551979838,0.4129997789859772,,
1622551979839,,-8.966285705566406,0.4884171485900879
1622551979903,0.9265560507774353,-7.989450931549072,0.8164227604866028
1622551979973,2.4420857429504395,-13.474567413330078,
1622551979974,,,1.5921441316604614
1622551980039,1.3646949529647827,,
1622551980040,,-9.260771751403809,1.2856862545013428
1622551980106,0.4489128291606903,-3.444059133529663,1.236605167388916
1622551980170,-1.1097124814987183,-9.829395294189453,-0.39145198464393616
1622551980235,1.479616641998291,,
1622551980236,,-9.543288230895996,0.707486629486084
1622551980306,-0.8774749040603638,,
1622551980307,,-7.779958248138428,0.645237386226654
1622551980369,1.625662922859192,,
1622551980370,,-11.717223167419434,1.072602391242981
1622551980435,-1.256955862045288,-10.647014617919922,0.910993754863739
1622551980500,-2.853888511657715,,
1622551980501,,-9.603142738342285,0.08858546614646912
1622551980567,-2.0638017654418945,,
1622551980568,,-10.062829971313477,0.42616790533065796
1622551980634,-2.051830768585205,-10.210073471069336,
1622551980635,,,1.0785878896713257
1622551980704,-2.2014684677124023,,
1622551980705,,-9.745597839355469,0.7433996200561523
1622551980769,-1.7345991134643555,,
1622551980770,,-9.996989250183105,2.139219284057617
1622551980835,-2.4576480388641357,,
1622551980836,,-10.113107681274414,2.721010208129883
1622551980905,-2.6443958282470703,,
1622551980906,,-8.56765079498291,0.3818751573562622
1622551980969,-0.7613561153411865,,
1622551980970,,-8.819042205810547,1.7106571197509766
1622551981037,-1.703474521636963,-8.672995567321777,2.779668092727661
1622551981103,-2.145204782485962,-8.89685344696045,3.8989574909210205
1622551981169,-2.1715409755706787,,
1622551981170,,-8.69095230102539,4.262876033782959
1622551981239,-1.4401123523712158,,
1622551981240,,-8.085219383239746,4.302380561828613
1622551981306,-1.1013327836990356,-7.6566572189331055,
1622551981307,,,3.2321722507476807
1622551981373,-1.9704279899597168,-7.526173114776611,
1622551981374,,,3.4344823360443115
1622551981436,-2.0398597717285156,-8.396465301513672,4.359841346740723
1622551981503,-1.6950948238372803,,
1622551981504,,-8.851364135742188,4.857835292816162
1622551981570,-1.580173134803772,-6.755239963531494,5.330689907073975
1622551981639,-8.201337814331055,-23.93004608154297,7.791929244995117
1622551981702,-0.20470423996448517,,
1622551981703,,-2.24935245513916,-5.773617267608643
1622551981769,3.531447410583496,,
1622551981770,,-11.908759117126465,-0.017956512048840523
1622551981834,-1.6915035247802734,-8.288725852966309,
1622551981835,,,-1.3084312677383423
1622551981901,0.7984662652015686,-10.650606155395508,
1622551981902,,,0.8248024582862854
1622551981971,0.05746084079146385,-9.320627212524414,0.5949591398239136
1622551982036,0.5949591398239136,-9.387664794921875,
1622551982037,,,-0.19153612852096558
1622551982103,-0.47644615173339844,-9.194931983947754,
1622551982104,,,-0.4381389021873474
1622551982172,0.6428431272506714,,
1622551982173,,-11.719616889953613,0.3770867586135864
1622551982234,0.2454056739807129,,
1622551982235,,-9.799467086791992,3.4823663234710693
1622551982301,2.3930046558380127,-17.006013870239258,1.5885528326034546
1622551982367,-4.873397350311279,-12.066776275634766,-0.5315127968788147
1622551982434,-1.6412252187728882,-9.860519409179688,-2.7042508125305176
1622551982502,-0.4118026793003082,-7.445967197418213,-0.0011971008498221636
1622551982567,-2.0590133666992188,,
1622551982568,,-3.7852327823638916,-1.1109095811843872
1622551982634,-2.387019157409668,-7.77756404876709,5.342660903930664
1622551990086,-0.43694180250167847,-12.133813858032227,8.83939266204834
1622551990165,5.640739440917969,-16.451757431030273,
1622551990166,,,4.4508209228515625
1622551990200,-9.370905876159668,,
1622551990201,,-14.09705924987793,-2.718616008758545
1622551990267,1.4389152526855469,-12.393585205078125,-1.9129672050476074
1622551990334,-1.1635819673538208,-6.8162922859191895,-1.9955670833587646
1622551990400,-2.1332337856292725,,
1622551990401,,-3.4308910369873047,-2.385822057723999
1622551990467,-2.299630641937256,,
1622551990468,,-5.671864032745361,1.2006921768188477
1622551990533,-0.23702596127986908,,
1622551990534,,-12.939462661743164,11.919532775878906
1622551990600,-1.334767460823059,-7.924807548522949,
1622551990601,,,4.241328239440918
1622551990668,-11.694478034973145,,
1622551990669,,-15.559916496276855,2.649184226989746
1622551990739,-5.0481743812561035,,
1622551990740,,-2.2397756576538086,-5.679046630859375
1622551995085,9.034520149230957,-17.889474868774414,-0.06464344263076782
1622551995145,-3.183091163635254,-9.218873977661133,0.31124621629714966
1622551995200,0.790086567401886,-8.565256118774414,
1622551995201,,,1.8375498056411743
1622551995267,-0.17717093229293823,,
1622551995268,,-8.912415504455566,2.300827741622925
1622551995334,-0.5817909836769104,-10.044873237609863,-0.3363853394985199
1622551995404,2.827552318572998,-11.040861129760742,
1622551995405,,,0.11013327538967133
1622551995467,-1.5622166395187378,-11.623848915100098,3.714603900909424
1622551995534,2.782062292098999,-15.67603588104248,6.278793811798096
1622551995601,-6.4164605140686035,-14.319720268249512,
1622551995602,,,0.22266076505184174
1622551995670,0.4800374507904053,-11.474211692810059,
1622551995671,,,-3.7433342933654785
1622551995739,-1.4209587574005127,-6.301538944244385,-2.011129379272461
1622551995801,-2.208651065826416,,
1622551995802,,-3.312378168106079,-2.4827871322631836
1622551995869,-3.40216064453125,-7.918822288513184,6.719326972961426
1622551995937,-0.6153098344802856,-11.191696166992188,
1622551995938,,,7.612364292144775
1622551996005,-2.049436569213867,,
1622551996006,,-6.617573261260986,6.651092529296875
1622551996072,-5.681440830230713,,
1622551996073,,-14.816516876220703,3.621230125427246
1622551996136,-4.116829872131348,-6.98628044128418,-6.7935471534729
1622551996205,2.9245173931121826,,
1622551996206,,-11.23718547821045,2.4815900325775146
1622551996272,-2.3283610343933105,-7.587224960327148,
1622551996273,,,0.6308721303939819
1622551996338,2.056619167327881,-10.087968826293945,1.4867992401123047
1622551996403,-0.5446808934211731,-9.21288776397705,-0.152031809091568
1622551996472,-0.42856210470199585,,
1622551996473,,-10.236409187316895,-0.29209262132644653
1622551996539,0.7589619159698486,-12.85207462310791,1.9033904075622559
1622551996605,2.736572504043579,-10.81460952758789,5.52821159362793
1622551996669,-3.7277719974517822,-14.860810279846191,-2.1104888916015625
1622551996738,0.45250412821769714,-12.81975269317627,
1622551996739,,,2.5785553455352783
1622551996802,-2.0649988651275635,-8.307879447937012,
1622551996803,,,-1.8495208024978638
1622551996871,-1.0319008827209473,-4.902127742767334,-2.456450939178467
1622551996935,-2.721010208129883,,
1622551996936,,-3.864241600036621,-1.5753847360610962
1622551997005,-0.44173020124435425,-13.375207901000977,
1622551997006,,,15.103821754455566
1622551997072,-0.45489832758903503,-11.164162635803223,
1622551997073,,,5.803544998168945
1622551997138,-6.561309814453125,-11.737573623657227,-2.3044190406799316
1622551997201,-3.420117139816284,,
1622551997202,,-3.711012601852417,-1.7070658206939697
1622551997272,5.785588264465332,,
1622551997273,,-16.844406127929688,-1.338358759880066
1622551997337,-3.004723072052002,-8.787917137145996,-0.9768342971801758
1622551997405,0.606930136680603,,
1622551997406,,-9.496601104736328,2.409764051437378
1622551997469,-0.52552729845047,-8.488641738891602,
1622551997470,,,2.0470423698425293
1622551997538,-0.21428105235099792,,
1622551997539,,-9.916783332824707,0.2801215946674347
1622551997605,0.5027823448181152,-10.317811965942383,-0.6991068720817566
1622551997671,-1.0414776802062988,-11.994950294494629,
1622551997672,,,4.19224739074707
1622551997737,3.9875428676605225,-15.816096305847168,
1622551997738,,,7.3418192863464355
1622551997804,-7.442376136779785,-13.330915451049805,
1622551997805,,,1.1839327812194824
1622551997871,0.16759411990642548,,
1622551997872,,-11.919532775878906,
1622551997938,-0.8176198601722717,-7.480683326721191,-1.4089876413345337
1622551998004,-2.146401882171631,,
1622551998005,,-3.5637693405151367,-2.87064790725708
1622551998070,-2.6815059185028076,,
1622551998071,,-5.609614372253418,1.535880446434021
1622551998136,1.744175910949707,-15.002067565917969,9.232041358947754
1622552002088,-3.354276657104492,,
1622552002089,,-6.1519012451171875,3.383007049560547
1622552002134,-0.8918401598930359,-12.393585205078125,3.004723072052002
1622552002200,2.895787000656128,,
1622552002201,,-15.934609413146973,4.219780445098877
1622552002225,-1.9991583824157715,-13.904326438903809,2.431311845779419
1622552002240,-7.5848307609558105,-14.050373077392578,-3.309983968734741
1622552002263,-8.368931770324707,-14.202404022216797,-2.2457611560821533
1622552002280,-4.630385875701904,-13.650541305541992,
1622552002281,,,2.695871114730835
1622552002300,0.5159504413604736,,
1622552002301,,-13.48414421081543,2.209848165512085
1622552002320,0.8738836050033569,,
1622552002321,,-12.629413604736328,-0.8535329103469849
1622552002340,-0.18076223134994507,,
1622552002341,,-11.048044204711914,-2.7521347999572754
1622552002360,-1.1228805780410767,,
1622552002362,,-8.911218643188477,-3.1316158771514893
1622552002380,-0.646434485912323,,
1622552002381,,-8.212111473083496,-4.037821292877197
1622552002401,-1.1552022695541382,,
1622552002402,,-7.706935405731201,-2.495955228805542
1622552002420,-1.4496891498565674,,
1622552002421,,-6.016628742218018,-1.3407529592514038
1622552002441,-1.1552022695541382,-4.265270233154297,-2.3582887649536133
1622552002460,-1.647210717201233,-3.5410242080688477,-2.832340717315674
1622552002480,-3.0609867572784424,,
1622552002481,,-3.226186752319336,-2.2206220626831055
1622552002501,-3.201047658920288,-3.6140475273132324,-1.655590534210205
1622552002520,-3.051409959793091,,
1622552002521,,-4.656722068786621,0.06584054976701736
1622552002541,-2.564189910888672,-7.015010833740234,3.3854012489318848
1622552002560,-1.2401964664459229,,
1622552002561,,-11.130643844604492,13.589488983154297
1622552002581,-0.5386953949928284,-14.675259590148926,13.624204635620117
1622552002601,0.9457096457481384,-14.652514457702637,11.196484565734863
1622552002621,0.6811503767967224,-13.472172737121582,8.426392555236816
1622552002641,-0.7050924301147461,-11.79024600982666,6.45357084274292
1622552002660,-0.4752490520477295,,
1622552002661,,-8.052897453308105,3.489548921585083
1622552002681,-1.9273324012756348,-5.455188751220703,4.888959884643555
1622552002700,-3.6080620288848877,-7.6985554695129395,
1622552002701,,,0.3196259140968323
1622552002721,-10.341753959655762,-11.437101364135742,-4.853046894073486
1622552002740,-4.8051629066467285,,
1622552002741,,-18.611326217651367,9.773131370544434
1622552002761,0.7338228225708008,-5.294776916503906,-2.1811177730560303
1622552002781,-2.070984363555908,-2.9759926795959473,-7.637503623962402
1622552002800,-3.9169139862060547,,
1622552002801,,-5.5341973304748535,-7.132327079772949
1622552002821,0.9588778018951416,-11.774683952331543,-5.305551052093506
1622552002841,8.544905662536621,-18.696321487426758,-3.464409828186035
1622552002860,7.168240070343018,,
1622552002861,,-15.27979564666748,5.009867191314697
1622552002881,0.8918401598930359,-10.204087257385254,1.9189527034759521
1622552002901,-3.4189200401306152,-8.793902397155762,-0.08140286058187485
1622552002921,-5.321113109588623,-7.688978672027588,0.090979665517807
1622552002940,-4.334702014923096,,
1622552002941,,-6.4834980964660645,0.5506663918495178
1622552002961,-1.8495208024978638,-7.4998369216918945,1.2868833541870117
1622552002981,1.6735470294952393,-10.107122421264648,0.45250412821769714
1622552003001,3.251325845718384,-10.943896293640137,1.7154455184936523
1622552003021,1.3706804513931274,-9.481039047241211,2.1978771686553955
1622552003041,-0.5614402890205383,-9.184157371520996,1.4472949504852295
1622552003061,-1.1540051698684692,-9.180566787719727,0.5518634915351868
1622552003081,-0.5710170865058899,-9.287108421325684,-0.37229835987091064
1622552003101,0.4381389021873474,-9.692925453186035,-0.5147533416748047
1622552003121,0.25737667083740234,-10.132261276245117,-0.2082955539226532
1622552003141,-0.03232172131538391,-10.532093048095703,0.27892449498176575
1622552003161,1.2761094570159912,-10.897209167480469,-0.3232172429561615
1622552003181,3.270479440689087,-12.173318862915039,0.3579331636428833
1622552003201,2.8790276050567627,-13.001712799072266,2.6240451335906982
1622552003221,-0.767341673374176,-12.57913589477539,4.4292731285095215
1622552003241,-2.473210334777832,-10.675745010375977,5.5329999923706055
1622552003261,1.8914192914962769,-13.78940486907959,5.058948040008545
1622552003281,5.772420406341553,-17.592594146728516,4.827907562255859
1622552003301,2.4229321479797363,-15.510835647583008,6.393715858459473
1622552003321,-2.715024709701538,-13.615824699401855,-2.82515811920166
1622552003341,-9.96825885772705,-13.323732376098633,-3.070563793182373
1622552003361,-4.40892219543457,-13.76785659790039,2.6443958282470703
1622552003381,1.8399440050125122,-13.274651527404785,1.2988544702529907
1622552003401,1.48081374168396,-12.480973243713379,-0.7817068696022034
1622552003421,0.34596213698387146,-11.049241065979004,-2.3056161403656006
1622552003441,-0.5135562419891357,-8.765172004699707,
1622552003442,,,-2.2601263523101807
1622552003461,-0.5327098965644836,-7.892486095428467,-3.58292293548584
1622552003481,-1.6124948263168335,-7.083245754241943,-1.8375498056411743
1622552003501,-1.9955670833587646,-5.653907299041748,-1.3467384576797485
1622552003521,-2.279279947280884,-4.665102005004883,-1.8986018896102905
1622552003540,-2.389413356781006,,
1622552003541,,-4.298789024353027,-3.3028011322021484
1622552003561,-2.960430383682251,-3.6810851097106934,-2.234987258911133
1622552003581,-3.1088709831237793,-3.7457284927368164,-1.2461819648742676
1622552003601,-2.6850972175598145,-4.413711071014404,-0.12090718746185303
1622552003621,-2.389413356781006,-5.954379558563232,1.9548656940460205
1622552003641,-0.9397241473197937,-11.310209274291992,11.640608787536621
1622552003661,1.3862427473068237,-14.626177787780762,12.703634262084961
1622552003681,2.073378562927246,-13.742717742919922,9.211690902709961
1622552003701,1.0330979824066162,-12.664130210876465,7.33583402633667
1622552003721,-0.3627215623855591,-12.124237060546875,6.466738700866699
1622552003740,-1.0031704902648926,,
1622552003741,,-8.710105895996094,4.1431660652160645
1622552003761,-3.405751943588257,-5.076904773712158,1.5610195398330688
1622552003780,-3.1495723724365234,,
1622552003781,,-5.163095951080322,5.097255229949951
1622552003801,-5.653907299041748,-10.24000072479248,-3.0166940689086914
1622552003820,-7.6099700927734375,,
1622552003821,,-16.201562881469727,0.5339069962501526
1622552003840,-2.493561029434204,,
1622552003841,,-21.583728790283203,9.113529205322266
1622552003860,-0.3148375153541565,,
1622552003861,,-5.3115363121032715,0.304063618183136
1622552003881,-3.4991257190704346,-0.5422866940498352,-7.812280178070068
1622552003901,-6.329071998596191,-1.9488801956176758,-6.388927459716797
1622552003921,-3.866635799407959,-8.267178535461426,-5.864596843719482
1622552003941,11.130643844604492,-22.801179885864258,-1.6831238269805908
1622552003961,7.360973358154297,-13.675680160522461,6.303933143615723
1622552003981,0.021547814831137657,-8.956708908081055,0.4010287821292877
1622552004001,-3.8786067962646484,-8.501810073852539,-1.4173674583435059
1622552004021,-4.436455726623535,-7.600393295288086,-0.9097966551780701
1622552004041,-2.9161376953125,-6.800729751586914,0.8918401598930359
1622552004061,0.42018240690231323,-9.02135181427002,2.518700122833252
1622552004081,2.190694570541382,-10.370484352111816,1.2868833541870117
1622552004100,1.3287819623947144,,
1622552004101,,-9.921571731567383,1.37906014919281
1622552004120,-1.1025298833847046,,
1622552004121,,-8.901641845703125,2.4672248363494873
1622552004140,-1.778891921043396,,
1622552004141,,-8.84058952331543,0.8882488012313843
1622552004161,-1.722628116607666,-8.919598579406738,-0.6655880808830261
1622552004180,-0.689530074596405,,
1622552004181,,-8.99860668182373,-1.4245500564575195
1622552004200,0.6619967818260193,,
1622552004201,,-10.234015464782715,-0.5027823448181152
1622552004220,0.243011474609375,,
1622552004221,,-11.311406135559082,1.5598224401474
1622552004240,1.4939818382263184,,
1622552004241,,-11.226411819458008,1.2054805755615234
1622552004260,3.779247283935547,,
1622552004261,,-12.125434875488281,1.314416766166687
1622552004280,3.847482204437256,,
1622552004281,,-13.46259593963623,0.9864110946655273
1622552004300,0.37469255924224854,,
1622552004301,,-12.7946138381958,3.796006679534912
1622552004321,-2.142810583114624,-10.47942066192627,4.083311080932617
1622552004340,-0.11971008777618408,,
1622552004341,,-10.681731224060059,4.812345504760742
1622552004360,3.6164417266845703,,
1622552004361,,-15.435418128967285,4.255693435668945
1622552004380,1.9033904075622559,,
1622552004381,,-16.189592361450195,5.791574001312256
1622552004400,-3.889380693435669,,
1622552004401,,-14.077905654907227,-0.2801215946674347
1622552004420,-7.9631147384643555,-14.044386863708496,
1622552004421,,,-6.1303534507751465
1622552004440,-7.680599212646484,,
1622552004441,,-14.03840160369873,-1.9345149993896484
1622552004460,-2.5079262256622314,,
1622552004461,,-13.688848495483398,3.0095114707946777
1622552004480,2.6216509342193604,,
1622552004481,,-13.285425186157227,2.3918075561523438
1622552004503,1.4437036514282227,,
1622552004504,,-13.061567306518555,-2.476801633834839
1622552004521,-0.5039794445037842,,
1622552004522,,-10.714052200317383,-3.290830135345459
1622552004541,-1.7968484163284302,,
1622552004542,,-7.642292022705078,-1.5418659448623657
1622552004561,-0.8762778043746948,,
1622552004562,,-7.9846625328063965,-3.954024076461792
1622552004582,-1.6424223184585571,-6.957550048828125,-2.2230162620544434
1622552004602,-1.965639591217041,-4.934449672698975,-1.7633295059204102
1622552004621,-1.7621324062347412,,
1622552004622,,-4.041412353515625,-2.2649147510528564
1622552004641,-2.072181463241577,,
1622552004642,,-3.5422213077545166,-2.404975652694702
1622552004661,-2.390610456466675,,
1622552004662,,-3.667917013168335,-2.190694570541382
1622552004681,-2.58813214302063,,
1622552004682,,-4.6040496826171875,-1.291671872138977
1622552004701,-2.469619035720825,-5.905298709869385,
1622552004702,,,0.9469067454338074
1622552004722,-2.7940332889556885,-7.99064826965332,4.787206172943115
1622552004741,-1.6424223184585571,,
1622552004742,,-12.05959415435791,12.521675109863281
1622552004762,-0.07541735470294952,,
1622552004763,,-14.617798805236816,11.423933029174805
1622552004781,0.2777273952960968,,
1622552004782,,-11.986570358276367,8.646659851074219
1622552004802,-0.7697358727455139,,
1622552004803,,-11.064803123474121,6.053739070892334
1622552004821,-0.9792284965515137,,
1622552004822,,-11.657367706298828,5.449203014373779
1622552004843,-1.1516109704971313,,
1622552004844,,-7.637503623962402,3.886986494064331
1622552004861,-2.4468741416931152,,
1622552004862,,-4.559757232666016,2.205059766769409
1622552004882,-1.235408067703247,-4.37420654296875,4.0964789390563965
1622552004901,-4.909310817718506,,
1622552004902,,-8.123526573181152,-6.114790916442871
1622552004921,-9.670180320739746,,
1622552004922,,-18.474857330322266,-0.6799532771110535
1622552004941,1.6496049165725708,,
1622552004942,,-28.025327682495117,15.090653419494629
1622552004962,1.625662922859192,-5.9088897705078125,
1622552004963,,,-1.1623848676681519
1622552004981,-3.773261785507202,,
1622552004982,,0.19273324310779572,-7.204153060913086
1622552005001,-7.150283336639404,,
1622552005002,,-0.7948749661445618,-6.7480573654174805
1622552005022,-7.915230751037598,-5.759252071380615,-5.304353713989258
1622552005041,0.45010992884635925,,
1622552005042,,-16.476896286010742,-8.676587104797363
1622552005061,10.395624160766602,,
1622552005062,,-21.38740348815918,-0.690727174282074
1622552005081,9.193734169006348,,
1622552005082,,-13.712790489196777,9.115922927856445
1622552005101,0.2669534981250763,,
1622552005102,,-9.327810287475586,3.163937568664551
1622552005121,-3.8091750144958496,,
1622552005122,,-7.662642478942871,-2.5522189140319824
1622552005141,-3.428496837615967,-5.628767967224121,
1622552005142,,,-1.9979612827301025
1622552005161,-1.8351556062698364,-8.790311813354492,2.013523578643799
1622552005181,0.11013327538967133,,
1622552005182,,-10.715250015258789,3.535038709640503
1622552005201,1.1216834783554077,,
1622552005202,,-9.725247383117676,1.6699557304382324
1622552005223,0.30286651849746704,-8.866926193237305,
1622552005224,,,0.9385270476341248
1622552005241,-0.52552729845047,,
1622552005242,,-8.868123054504395,0.4465186297893524
1622552005261,-0.2849099934101105,,
1622552005262,,-9.654618263244629,0.010773907415568829
1622552005281,0.6440402865409851,,
1622552005282,,-9.90241813659668,-0.5351040959358215
1622552005301,0.26096799969673157,,
1622552005302,,-10.127472877502441,0.4273650050163269
1622552005322,-0.6883329749107361,,
1622552005323,,-10.27591323852539,0.8954314589500427
1622552005341,0.20350714027881622,,
1622552005342,,-10.723628997802734,-0.7649474143981934
1622552005361,1.3634978532791138,,
1622552005362,,-11.291055679321289,-0.8954314589500427
1622552005382,3.137601375579834,-12.738349914550781,1.4640543460845947
1622552005401,1.437718152999878,,
1622552005402,,-13.0328369140625,
1622552005421,-1.9835960865020752,,
1622552005422,,-12.057199478149414,4.24970817565918
1622552005442,0.5327098965644836,-11.578359603881836,4.225766181945801
1622552005461,4.435258865356445,,
1622552005462,,-15.21275806427002,4.240131378173828
1622552005482,3.8091750144958496,-15.28338623046875,
1622552005483,,,5.974730491638184
1622552005505,-2.1272482872009277,-13.350069046020508,3.26688814163208
1622552005521,-7.829039573669434,,
1622552005522,,-14.379575729370117,-4.197035789489746
1622552005542,-9.278728485107422,-13.494917869567871,-4.311957359313965
1622552005561,-4.3610382080078125,,
1622552005562,,-13.102269172668457,1.1432312726974487
1622552005582,1.0761936902999878,,
1622552005583,,-13.964180946350098,2.0901381969451904
1622552005602,2.6240451335906982,-12.916718482971191,-0.6392518281936646
1622552005687,-1.2234370708465576,-6.907271862030029,
1622552005688,,,-2.0374655723571777
1622552005755,-2.4612393379211426,-3.8079779148101807,-2.8383262157440186
1622552005822,-2.7126305103302,-6.932411193847656,
1622552005823,,,2.497152328491211
1622552005891,1.533486247062683,-13.831303596496582,9.361329078674316
1622552005956,-3.488351821899414,-5.0266265869140625,
1622552005957,,,2.8191723823547363
1622552006026,-8.216899871826172,-17.34000587463379,
1622552006027,,,3.3494882583618164
1622552006089,-4.932055473327637,,
1622552006090,,-4.02465295791626,-7.068880558013916
1622552006158,8.670601844787598,,
1622552006159,,-16.403873443603516,5.019443988800049
1622552006225,-3.6786909103393555,,
1622552006226,,-7.875726699829102,-0.524330198764801
1622552006290,1.778891921043396,-10.177751541137695,1.434126853942871
1622552006358,-0.3663128614425659,,
1622552006359,,-9.05367374420166,
1622552006360,,,0.11252748221158981
1622552006426,-1.2294225692749023,,
1622552006427,,-10.062829971313477,0.20231004059314728
1622552006492,3.667917013168335,-13.084312438964844,1.8076223134994507
1622552006558,3.8367083072662354,-17.8128604888916,1.698686122894287
1622552006626,-5.641936302185059,-13.363236427307129,-4.157531261444092
1622552006688,-0.20709845423698425,-12.534843444824219,1.9764134883880615
1622552006755,0.7098808288574219,-8.71728801727295,-1.2090718746185303
1622552006823,-2.519897222518921,,
1622552006824,,-4.358644008636475,-1.8926163911819458
1622552006888,-1.946485996246338,-4.620809078216553,-0.8798691034317017
1622552006954,0.03950432687997818,-14.103045463562012,12.947842597961426
1622552007022,-0.6440402865409851,,
1622552007023,,-10.805032730102539,5.5772929191589355
1622552007088,-7.565677165985107,-12.531251907348633,
1622552007089,,,-3.9647979736328125
1622552007155,-2.1296424865722656,-2.3774423599243164,-6.360196590423584
1622552007222,8.78312873840332,,
1622552007223,,-16.922218322753906,-1.8579005002975464
1622552007287,-4.185064792633057,,
1622552007288,,-8.31865406036377,-1.5454572439193726
1622552007357,0.7541735172271729,-10.234015464782715,2.0159177780151367
1622552007424,-0.7697358727455139,,
1622552007425,,-8.848969459533691,1.4472949504852295
1622552007488,0.7386112213134766,-10.125079154968262,0.363918662071228
1622552007555,2.980781078338623,-11.63103199005127,-0.8176198601722717
1622552007625,-2.448071241378784,,
1622552007626,,-10.078392028808594,3.162740468978882
1622552007689,2.2014684677124023,,
1622552007690,,-15.055937767028809,5.093664169311523
1622552007759,-4.050989151000977,-12.99812126159668,
1622552007760,,,1.6603789329528809
1622552007824,-0.9528923034667969,,
1622552007825,,-10.290278434753418,-3.934870481491089
1622552007892,-0.2885012924671173,,
1622552007893,,-6.515820026397705,-0.608127236366272
1622552011088,-3.2154128551483154,-3.1471781730651855,-3.02986216545105
1622552011147,-0.7721300721168518,-6.3745622634887695,-0.50876784324646
1622552011154,-1.358709454536438,-4.947618007659912,-1.6496049165725708
1622552011174,-1.9967641830444336,-4.049792289733887,-2.8431146144866943
1622552011194,-2.911349296569824,-3.6739025115966797,-2.7892448902130127
1622552011214,-3.378218650817871,-3.7648820877075195,-1.9572598934173584
1622552011234,-3.404554843902588,-4.052186489105225,-0.99479079246521
1622552011254,-2.876633405685425,-4.41969633102417,1.05105459690094
1622552011274,-2.254140853881836,-6.347028732299805,5.6443305015563965
1622552011294,-0.5877765417098999,-9.895236015319824,12.937068939208984
1622552011316,1.2258312702178955,,
1622552011317,,-14.481328964233398,10.518924713134766
1622552011337,1.9512743949890137,-13.656526565551758,8.085219383239746
1622552011354,0.18794482946395874,,
1622552011355,,-11.652579307556152,7.264008045196533
1622552011379,-0.730231523513794,,
1622552011380,,-9.226056098937988,4.6938323974609375
1622552011395,-2.942473888397217,-5.7341132164001465,4.1431660652160645
1622552011414,-2.8347349166870117,,
1622552011415,,-6.214150428771973,10.47702693939209
1622552011435,-7.6075758934021,-13.174095153808594,-7.574057102203369
1622552011455,-10.861295700073242,-20.154390335083008,
1622552011456,,,1.8914192914962769
1622552011479,3.3016040325164795,-16.09382438659668,9.039308547973633
1622552011494,-0.768538773059845,,
1622552011495,,-0.871489405632019,-4.760869979858398
1622552011514,-4.766855716705322,,
1622552011515,,-0.5554547905921936,-7.979874134063721
1622552011534,-7.356184959411621,,
1622552011535,,-4.607641220092773,-7.078457355499268
1622552011555,-1.1875240802764893,-13.505691528320312,-7.624335289001465
1622552011574,9.21288776397705,,
1622552011575,,-21.79561424255371,-3.6176388263702393
1622552011594,9.890447616577148,,
1622552011595,,-15.357606887817383,6.4164605140686035
1622552011615,1.2653355598449707,-10.256759643554688,
1622552011616,,,1.41257905960083
1622552011635,-5.002684593200684,-7.55131196975708,
1622552011636,,,-0.7829039692878723
1622552011655,-3.6320040225982666,,
1622552011656,,-5.785588264465332,-1.6974890232086182
1622552011675,-2.097320795059204,,
1622552011676,,-6.205770969390869,-0.4189853072166443
1622552011695,0.585382342338562,-10.029311180114746,1.6041151285171509
1622552011715,2.8227639198303223,-11.402385711669922,1.6496049165725708
1622552011734,1.3718775510787964,,
1622552011735,,-9.725247383117676,2.0027496814727783
1622552011758,-1.0977414846420288,-8.71728801727295,2.1320366859436035
1622552011775,-1.9728221893310547,-8.69334602355957,
1622552011776,,,0.9074024558067322
1622552011797,-1.381454348564148,,
1622552011798,,-8.799888610839844,-0.7433996200561523
1622552011815,-0.3974374830722809,-9.657012939453125,
1622552011816,,,-1.6280571222305298
1622552011834,0.20350714027881622,,
1622552011835,,-10.961852073669434,1.260547161102295
1622552011854,0.2849099934101105,,
1622552011855,,-11.556811332702637,0.9516952037811279
1622552011875,0.8176198601722717,-11.1102933883667,-0.21787235140800476
1622552011897,4.338293552398682,,
1622552011898,,-11.075576782226562,1.235408067703247
1622552011915,4.02345609664917,-13.047202110290527,
1622552011916,,,1.41257905960083
1622552011937,-1.4293384552001953,,
1622552011938,,-12.257115364074707,3.7636849880218506
1622552011955,-0.9840168952941895,-10.436325073242188,4.265270233154297
1622552011975,3.248931646347046,,
1622552011976,,-14.805743217468262,4.355052947998047
1622552011998,5.473145008087158,,
1622552011999,,-17.032350540161133,3.8941690921783447
1622552012015,-1.4401123523712158,-13.490129470825195,
1622552012016,,,5.60722017288208
1622552012035,-6.145915985107422,-13.085509300231934,
1622552012036,,,-3.927687883377075
1622552012054,-7.825448036193848,,
1622552012055,,-14.089877128601074,-4.833893299102783
1622552012078,-5.044582843780518,,
1622552012079,,-14.699201583862305,1.8148049116134644
1622552012095,-0.9133879542350769,-13.685256958007812,
1622552012096,,,3.4572272300720215
1622552012114,1.968033790588379,,
1622552012115,,-13.217190742492676,0.16160862147808075
1622552012134,0.03950432687997818,,
1622552012135,,-12.526463508605957,-2.4013843536376953
1622552012158,-1.5131354331970215,-10.004171371459961,-3.072957992553711
1622552012175,-1.41257905960083,-8.487444877624512,-3.6595373153686523
1622552012195,-1.3180080652236938,-7.814674377441406,-2.5498247146606445
1622552012214,-1.8052281141281128,,
1622552012215,,-6.780379295349121,-1.4293384552001953
1622552012239,-1.8351556062698364,,
1622552012240,,-5.055356979370117,-2.5498247146606445
1622552012255,-1.768117904663086,-3.9456443786621094,
1622552012256,,,-2.206256866455078
1622552012274,-2.4672248363494873,,
1622552012275,,-3.3219549655914307,-1.96683669090271
1622552012294,-2.31758713722229,,
1622552012295,,-3.732560396194458,-2.0841526985168457
1622552012314,-2.316390037536621,,
1622552012315,,-4.191050052642822,
1622552012316,,,-0.35434186458587646
1622552012335,-2.741360902786255,-5.019443988800049,2.3942017555236816
1622552012354,-2.248155355453491,,
1622552012355,,-8.002618789672852,7.491456985473633
1622552012374,-0.9253589510917664,,
1622552012375,,-12.45822811126709,13.874399185180664
1622552012394,0.8643068075180054,,
1622552012395,,-14.90869426727295,11.623848915100098
1622552012414,1.40180504322052,,
1622552012415,,-12.648567199707031,7.577648162841797
1622552012435,-0.333991140127182,-10.858901977539062,
1622552012436,,,6.718130111694336
1622552012454,-1.2102689743041992,,
1622552012455,,-9.786299705505371,6.078877925872803
1622552012475,-3.0346505641937256,-6.4164605140686035,3.664325714111328
1622552012495,-2.1380221843719482,-6.057330131530762,6.098031520843506
1622552012517,-10.522516250610352,,
1622552012518,,-8.560467720031738,-5.394136428833008
1622552012535,-12.033257484436035,-16.905458450317383,
1622552012536,,,2.874239206314087
1622552012555,4.414907932281494,-18.237831115722656,9.512163162231445
1622552012574,2.4636335372924805,,
1622552012575,,-4.0976762771606445,-5.468356609344482
1622552012598,-2.6360161304473877,,
1622552012599,,-1.5729905366897583,-6.599617004394531
1622552012615,-5.365406036376953,,
1622552012616,,-4.323928356170654,-5.188235282897949
1622552012634,-0.02513911761343479,,
1622552012635,,-12.385205268859863,-4.2544965744018555
1622552012654,8.949525833129883,,
1622552012655,,-20.080169677734375,-1.9979612827301025
1622552012675,7.690176010131836,,
1622552012676,,-14.63814926147461,3.556586742401123
1622552012694,0.15442600846290588,,
1622552012695,,-9.854534149169922,1.6065093278884888
1622552012715,-3.4380736351013184,,
1622552012716,,-9.02254867553711,-0.6739677786827087
1622552012738,-4.090493679046631,-7.8541789054870605,
1622552012739,,,-0.667982280254364
1622552012755,-2.9269115924835205,-6.335057735443115,-0.25019407272338867
1622552012775,-1.0199298858642578,-7.613561630249023,1.8531121015548706
1622552012795,1.703474521636963,-11.207258224487305,1.0330979824066162
1622552012819,2.82515811920166,-11.118672370910645,1.3239935636520386
1622552012835,-0.03232172131538391,,
1622552012836,,-8.856152534484863,2.184709072113037
1622552012855,-1.4401123523712158,-8.755595207214355,1.744175910949707
1622552012874,-1.1252747774124146,,
1622552012875,,-8.911218643188477,-0.16998831927776337
1622552012898,0.07182604819536209,,
1622552012899,,-9.214085578918457,-1.923741102218628
1622552012915,0.0586579404771328,-9.998186111450195,
1622552012916,,,-0.5614402890205383
1622552012935,-0.19033902883529663,-10.309432983398438,1.4891934394836426
1622552012959,0.035913024097681046,,
1622552012960,,-10.505757331848145,-0.3076549172401428
1622552012975,0.8954314589500427,,
1622552012976,,-11.35929012298584,-0.9971849918365479
1622552012998,2.7557260990142822,-11.99255657196045,
1622552012999,,,0.9612720012664795
1622552013015,1.278503656387329,-13.289016723632812,
1622552013016,,,2.139219284057617
1622552013034,-1.3886369466781616,,
1622552013035,,-12.30859088897705,2.937685489654541
1622552013054,-1.9931728839874268,,
1622552013055,,-10.302249908447266,2.734178304672241
1622552013075,0.5207388401031494,-10.897209167480469,
1622552013076,,,5.044582843780518
1622552013096,4.55616569519043,,
1622552013097,,-15.737088203430176,4.32991361618042
1622552013115,5.370194435119629,-15.570691108703613,5.146336555480957
1622552013134,-4.505887508392334,,
1622552013135,,-13.189657211303711,0.020350715145468712
1622552013154,-8.96389102935791,,
1622552013155,,-14.694413185119629,
1622552013156,,,-5.803544998168945
1622552013174,-8.53532886505127,,
1622552013175,,-14.360422134399414,-0.1735796183347702
1622552013196,-1.5981296300888062,,
1622552013197,,-13.775039672851562,3.8714241981506348
1622552013214,2.936488389968872,,
1622552013215,,-13.675680160522461,0.3076549172401428
1622552013236,1.9189527034759521,-13.056778907775879,-2.1128830909729004
1622552013255,-0.35913026332855225,-10.927136421203613,
1622552013256,,,-3.1531636714935303
1622552013274,-2.0446481704711914,,
1622552013275,,-8.688557624816895,-2.5438392162323
1622552013294,-1.212663173675537,,
1622552013295,,-7.891288757324219,-3.6128504276275635
1622552013315,-1.656787633895874,,
1622552013316,,-6.3973069190979,-1.280897855758667
1622552013338,-1.6136919260025024,,
1622552013339,,-4.568136692047119,-1.1252747774124146
1622552013355,-1.581370234489441,-3.754108190536499,
1622552013356,,,-1.6136919260025024
1622552013374,-1.6340426206588745,,
1622552013375,,-3.773261785507202,-3.0178911685943604
1622552013395,-2.537853717803955,-3.5027170181274414,-2.3942017555236816
1622552013414,-2.999934673309326,,
1622552013415,,-3.558980941772461,-1.5263035297393799
1622552013434,-2.850297212600708,,
1622552013435,,-5.015852451324463,1.3299790620803833
1622552013454,-2.410961151123047,,
1622552013455,,-8.413225173950195,7.380126953125
1622552013479,-0.32680854201316833,-13.198037147521973,
1622552013480,,,14.602235794067383
1622552013495,0.7745242714881897,,
1622552013496,,-15.096638679504395,10.994174003601074
1622552013514,1.1252747774124146,,
1622552013515,,-12.848483085632324,7.857769966125488
1622552013534,-0.5674257874488831,,
1622552013535,,-12.038045883178711,6.9276227951049805
1622552013554,-1.213860273361206,,
1622552013555,,-10.51174259185791,
1622552013574,-1.6543933153152466,,
1622552013575,,-6.645106792449951,3.464409828186035
1622552013594,-1.703474521636963,,
1622552013595,,-4.624400615692139,4.836287498474121
1622552013614,-4.902127742767334,,
1622552013615,,-9.295488357543945,-0.3016694188117981
1622552013634,-9.606734275817871,,
1622552013635,,-15.039177894592285,-0.2214636504650116
1622552013658,-4.302380561828613,,
1622552013659,,-20.12925148010254,9.41519832611084
1622552013675,4.027047157287598,-9.57201862335205,5.206191539764404
1622552013694,-1.6651673316955566,,
1622552013695,,-1.1276689767837524,
1622552013696,,,-8.022970199584961
1622552013715,-5.098452568054199,-1.7166426181793213,-7.117961883544922
1622552013735,-4.025850296020508,,
1622552013736,,-10.266336441040039,-4.63517427444458
1622552013754,6.244078159332275,,
1622552013755,,-19.421764373779297,-4.538209438323975
1622552013774,8.892065048217773,,
1622552013775,,-16.857574462890625,4.801571369171143
1622552013795,2.031480073928833,,
1622552013796,,-10.484209060668945,3.602076530456543
1622552013818,-2.0697872638702393,-9.117119789123535,-0.24660277366638184
1622552013835,-4.145560264587402,-7.739256858825684,
1622552013836,,,-1.478419542312622
1622552013855,-3.3937809467315674,-6.293159008026123,-0.30526071786880493
1622552013875,-1.5382746458053589,-8.028955459594727,2.0266916751861572
1622552013894,1.9764134883880615,,
1622552013895,,-10.904391288757324,1.479616641998291
1622552013915,4.07014274597168,,
1622552013916,,-10.893617630004883,1.6855180263519287
1622552013935,0.5111620426177979,,
1622552013936,,-9.169792175292969,2.2900538444519043
1622552013955,-1.4089876413345337,-8.638279914855957,1.8590975999832153
1622552013975,-1.5131354331970215,-8.62271785736084,0.6248866319656372
1622552013995,-1.213860273361206,-8.841787338256836,-0.7206547260284424
1622552014014,0.14365209639072418,,
1622552014015,,-9.35773754119873,-0.5793967843055725
1622552014036,0.8044517636299133,,
1622552014037,,-10.164583206176758,0.1999158412218094
1622552014054,0.35075053572654724,,
1622552014055,,-10.591948509216309,0.18794482946395874
1622552014076,0.4836287498474121,,
1622552014077,,-10.752359390258789,-0.4010287821292877
1622552014095,1.799242615699768,-11.835736274719238,
1622552014096,,,-0.023942016065120697
1622552014114,2.298433542251587,,
1622552014115,,-12.970587730407715,1.3611036539077759
1622552014137,-0.6775590777397156,-12.980164527893066,
1622552014138,,,3.9600095748901367
1622552014154,-2.8993782997131348,,
1622552014155,,-10.958261489868164,4.171896457672119
1622552014178,0.2537853717803955,,
1622552014179,,-10.886435508728027,3.6104562282562256
1622552014195,5.242104530334473,-15.561114311218262,4.885368347167969
1622552014214,4.2090067863464355,,
1622552014215,,-15.76581859588623,7.258022308349609
1622552014237,-0.9828197956085205,-13.917494773864746,4.373009204864502
1622552014255,-7.183802127838135,-13.39675521850586,
1622552014256,,,-7.049726963043213
1622552014274,-9.45111083984375,,
1622552014275,,-13.407529830932617,-3.86543869972229
1622552014295,-4.101267337799072,-13.986926078796387,2.3283610343933105
1622552014317,3.9647979736328125,-14.205995559692383,
1622552014318,,,1.3946224451065063
1622552014338,1.3922282457351685,-12.625823020935059,-1.1085153818130493
1622552014355,-0.7924807667732239,,
1622552014356,,-10.558429718017578,-3.550601005554199
1622552014375,-1.8830395936965942,-8.42040729522705,
1622552014376,,,-2.4193408489227295
1622552014397,-1.1228805780410767,,
1622552014398,,-7.552509307861328,-2.782062292098999
1622552014415,-1.1528080701828003,-6.724115371704102,-1.4832079410552979
1622552014434,-1.4927847385406494,,
1622552014435,,-5.371391296386719,-1.599326729774475
1622552014454,-1.8136078119277954,,
1622552014455,,-4.528632640838623,-2.1332337856292725
1622552014476,-1.8543092012405396,,
1622552014477,,-3.9815573692321777,-2.6611552238464355
1622552014495,-2.3487119674682617,,
1622552014496,,-3.8534677028656006,-2.4863784313201904
1622552014514,-3.022679567337036,,
1622552014515,,-4.106055736541748,-1.456871747970581
1622552014537,-3.1088709831237793,,
1622552014538,,-4.612429618835449,0.28730419278144836
1622552014621,1.9692308902740479,-14.101847648620605,10.02571964263916
1622552014690,-3.33392596244812,,
1622552014691,,-5.154716491699219,3.3039982318878174
1622552014758,-5.547365188598633,-16.37993049621582,3.2417490482330322
1622552014823,-4.902127742767334,,
1622552014824,,-5.363011837005615,-6.336254596710205
1622552018087,4.035427093505859,-11.950657844543457,3.8989574909210205
1622552018141,-4.175487995147705,-9.667786598205566,
1622552018142,,,-8.394071578979492
1622552018200,1.3527239561080933,-9.209297180175781,2.6228480339050293
1622552018268,-2.454056739807129,-7.539340972900391,0.871489405632019
1622552018335,1.2737152576446533,,
1622552018336,,-8.905233383178711,1.3778630495071411
1622552018402,-0.5279214978218079,,
1622552018403,,-9.604340553283691,0.08978256583213806
1622552018469,0.3842693865299225,,
1622552018471,,-11.027692794799805,0.545877993106842
1622552018534,1.9548656940460205,,
1622552018535,,-13.119028091430664,2.6862943172454834
1622552018601,3.3949780464172363,,
1622552018602,,-14.480132102966309,4.015076160430908
1622552018672,-8.493430137634277,-13.691242218017578,
1622552018673,,,-4.701014995574951
1622552018740,1.4413094520568848,-13.12381649017334,0.3555389642715454
1622552018805,-2.0446481704711914,-7.0341644287109375,
1622552018806,,,-2.5558102130889893
1622552018946,-1.4927847385406494,,
1622552018947,-2.7928361892700195,-4.013879299163818,-1.5107412338256836
1622552019000,-0.3232172429561615,,
1622552019001,,-13.188460350036621,12.903550148010254
1622552019068,-0.7338228225708008,-10.983400344848633,6.337451934814453
1622552019134,-8.820239067077637,-13.928268432617188,-0.5482721924781799
1622552019203,-2.8670566082000732,-3.3458969593048096,-7.933187484741211
1622552019271,9.340977668762207,-17.911022186279297,1.0127472877502441
1622552019338,-4.268861770629883,-8.93037223815918,
1622552019339,,,-1.2952631711959839
1622552019404,1.9357120990753174,-10.26394271850586,0.20949265360832214
1622552019469,-1.2042834758758545,-8.621520042419434,
1622552019470,,,-0.30286651849746704
1622552019539,-1.037886381149292,,
1622552019540,,-9.840168952941895,1.0127472877502441
1622552019606,1.6340426206588745,-11.830947875976562,1.2461819648742676
1622552019687,-1.3515268564224243,-11.139023780822754,3.362656354904175
1622552019688,-1.338358759880066,-10.921151161193848,5.400122165679932
1622552019707,2.7485435009002686,-14.513650894165039,
1622552019708,,,6.14831018447876
1622552019727,4.200626850128174,-16.06868553161621,
1622552019728,,,4.316745758056641
1622552019747,-0.8595184087753296,-13.883975982666016,-1.6388310194015503
1622552019767,-8.128314971923828,-14.245500564575195,-6.13753604888916
1622552019787,-8.212111473083496,,
1622552019788,,-13.66610336303711,-1.1324573755264282
1622552019807,-2.2900538444519043,-13.10107135772705,3.4823663234710693
1622552019827,2.182314872741699,-13.041216850280762,1.9488801956176758
1622552019847,0.9193734526634216,-12.987346649169922,-0.9181763529777527
1622552019868,-0.9612720012664795,-11.080365180969238,-3.9384617805480957
1622552019890,-2.1320366859436035,-8.548497200012207,-2.3044190406799316
1622552019907,-1.382651448249817,-7.437587738037109,-2.875436305999756
1622552019927,-0.524330198764801,-7.052121162414551,-1.0618284940719604
1622552019947,-0.8331822156906128,,
1622552019948,,-5.971138954162598,-1.169567584991455
1622552019968,-1.2090718746185303,-5.276820659637451,-3.049015760421753
1622552019988,-2.3092074394226074,-3.8762125968933105,
1622552019989,,,-2.63362193107605
1622552020008,-2.3702597618103027,,
1622552020009,,-2.9281086921691895,-2.300827741622925
1622552020028,-2.3582887649536133,-3.441664934158325,-0.7793126702308655
1622552020048,-3.1507694721221924,-4.531026840209961,
1622552020049,,,3.444059133529663
1622552020071,-1.9931728839874268,-7.976283073425293,10.394426345825195
1622552020088,-0.4489128291606903,-13.334506034851074,
1622552020089,,,7.826645374298096
1622552020108,0.8882488012313843,-13.115436553955078,10.140641212463379
1622552020128,0.48243165016174316,-11.549629211425781,
1622552020129,,,7.757213592529297
1622552020148,-0.2669534981250763,-11.455058097839355,
1622552020149,,,5.683835029602051
1622552020172,-0.8200140595436096,,
1622552020173,,-12.293028831481934,5.9088897705078125
1622552020188,-2.9915549755096436,-10.18493366241455,
1622552020189,,,6.762422561645508
1622552020210,-4.55496883392334,,
1622552020211,,-10.383652687072754,9.041702270507812
1622552020228,-7.978677272796631,-16.449363708496094,
1622552020229,,,2.165555477142334
1622552020249,-2.5486276149749756,,
1622552020250,,-13.785813331604004,0.30047231912612915
1622552020269,-1.902193307876587,-6.845022678375244,-0.5374982953071594
1622552020288,-5.463568210601807,-1.169567584991455,
1622552020289,,,-3.242946147918701
1622552020308,-7.9858598709106445,,
1622552020309,,-1.945288896560669,-7.717709064483643
1622552020328,-1.9345149993896484,,
1622552020329,,-10.672154426574707,-6.323086738586426
1622552020352,7.571662902832031,,
1622552020353,,-20.187908172607422,-3.0992941856384277
1622552020368,10.723628997802734,,
1622552020369,,-17.25261688232422,3.378218650817871
1622552020388,2.6192567348480225,-9.709685325622559,
1622552020389,,,1.9081788063049316
1622552020408,-1.6915035247802734,,
1622552020409,,-8.221688270568848,-0.26575639843940735
1622552020428,-3.825934410095215,,
1622552020429,,-8.474276542663574,-0.7242460250854492
1622552020448,-3.4081461429595947,-7.586028099060059,0.05147533491253853
1622552020468,-1.7142484188079834,-8.039729118347168,
1622552020469,,,1.3718775510787964
1622552020489,1.016338586807251,-10.3549222946167,
1622552020490,,,1.9033904075622559
1622552020508,2.3762452602386475,,
1622552020509,,-10.882843971252441,0.9828197956085205
1622552020530,2.1475989818573,,
1622552020531,,-9.976638793945312,1.9405004978179932
1622552020548,-0.46567222476005554,,
1622552020549,,-8.887276649475098,2.474407434463501
1622552020568,-1.359906554222107,-8.564059257507324,
1622552020569,,,0.9564836025238037
1622552020588,-0.7326257228851318,-8.834604263305664,
1622552020589,,,-0.6811503767967224
1622552020608,-0.24660277366638184,-8.904036521911621,
1622552020609,,,-1.094150185585022
1622552020628,0.005985504016280174,-10.092757225036621,
1622552020629,,,-0.6943184733390808
1622552020648,-0.6607996821403503,-10.663774490356445,
1622552020649,,,0.42377370595932007
1622552020668,-0.8643068075180054,-10.799046516418457,
1622552020669,,,0.2190694510936737
1622552020688,-0.7565677165985107,-11.006145477294922,
1622552020689,,,0.6224924325942993
1622552020709,2.1499931812286377,-11.512518882751465,0.6200982332229614
1622552020728,3.7828385829925537,-12.630611419677734,1.8722656965255737
1622552020748,0.6979097723960876,,
1622552020749,,-13.146561622619629,
1622552020750,,,2.8886044025421143
1622552020768,-2.5246856212615967,,
1622552020769,,-10.76193618774414,3.511096715927124
1622552020788,-0.1256955862045288,-10.253169059753418,3.6092591285705566
1622552020810,4.333505153656006,-14.586673736572266,
1622552020811,,,3.0550012588500977
1622552020828,5.009867191314697,,
1622552020829,,-15.871163368225098,4.145560264587402
1622552020848,0.2753331959247589,,
1622552020849,,-13.763068199157715,3.822343111038208
1622552020868,-8.4108304977417,-12.937068939208984,-3.0406360626220703
1622552020891,-8.93037223815918,,
1622552020892,,-14.155717849731445,-1.2725181579589844
1622552020908,-3.339911460876465,-13.55118179321289,
1622552020909,,,3.3889925479888916
1622552020928,2.365471363067627,-13.455413818359375,1.9704279899597168
1622552020948,1.5143325328826904,-12.696451187133789,-1.6639702320098877
1622552020968,0.39863458275794983,-11.18092155456543,-3.714603900909424
1622552020988,-1.1420341730117798,-8.935160636901855,-2.649184226989746
1622552021009,-0.5363011956214905,,
1622552021010,,-8.244433403015137,-3.7241806983947754
1622552021028,-1.2473790645599365,,
1622552021029,,-7.147889137268066,-1.1001356840133667
1622552021048,-1.557428240776062,-5.57250452041626,
1622552021049,,,-1.3180080652236938
1622552021068,-1.889025092124939,-4.618414878845215,
1622552021069,,,-2.627636432647705
1622552021090,-1.9572598934173584,,
1622552021091,,-3.9480385780334473,-2.8790276050567627
1622552021108,-2.522291421890259,,
1622552021109,,-3.471592426300049,-2.229001760482788
1622552021131,-3.023876667022705,,
1622552021132,,-3.8127663135528564,-1.2198457717895508
1622552021148,-3.027467966079712,,
1622552021149,,-4.537012100219727,-0.07062894850969315
1622552021168,-3.2956185340881348,,
1622552021169,,-5.942408561706543,2.313995838165283
1622552021188,-3.094505786895752,,
1622552021189,,-8.969876289367676,8.395268440246582
1622552021208,-0.2190694510936737,-13.439850807189941,
1622552021209,,,12.854469299316406
1622552021228,1.400607943534851,,
1622552021229,,-14.112622261047363,9.822212219238281
1622552021248,1.3539210557937622,,
1622552021249,,-13.18127727508545,7.557297706604004
1622552021272,0.08140286058187485,-12.000935554504395,6.448782444000244
1622552021290,-0.9516952037811279,,
1622552021291,,-8.372523307800293,4.189853191375732
1622552021308,-2.513911724090576,,
1622552021309,,-4.376600742340088,4.522646903991699
1622552021328,-5.097255229949951,-8.222886085510254,-2.7676970958709717
1622552021349,-9.396044731140137,-13.630189895629883,
1622552021350,,,0.6440402865409851
1622552021369,-7.162254333496094,-17.565061569213867,4.764461517333984
1622552021387,1.382651448249817,,
1622552021388,,-9.794678688049316,4.496310710906982
1622552021407,-1.5263035297393799,,
1622552021408,,-2.869450807571411,-6.754043102264404
1622552021430,-5.359420299530029,-3.5182793140411377,-7.141903877258301
1622552021447,-5.024232387542725,,
1622552021448,,-7.483077526092529,-6.106411457061768
1622552021467,2.959233283996582,,
1622552021468,,-15.638925552368164,-4.771644115447998
1622552021491,9.118317604064941,-19.081787109375,4.019864559173584
1622552021509,1.6627731323242188,-9.883264541625977,
1622552021510,,,2.313995838165283
1622552021528,-2.123656988143921,,
1622552021529,,-9.340977668762207,-0.40940847992897034
1622552021551,-4.69024133682251,-8.365341186523438,-0.9780313968658447
1622552021568,-3.907337188720703,,
1622552021569,,-6.691793918609619,0.9361328482627869
1622552021588,-2.0685901641845703,-7.564480304718018,1.6950948238372803
1622552021608,1.1755530834197998,-10.016142845153809,
1622552021609,,,0.26336219906806946
1622552021628,3.4823663234710693,-11.049241065979004,
1622552021629,,,0.6607996821403503
1622552021648,1.48081374168396,-9.606734275817871,2.3235726356506348
1622552021668,-0.6344634294509888,-8.683769226074219,1.256955862045288
1622552021688,-1.1348515748977661,-8.821435928344727,
1622552021689,,,0.40940847992897034
1622552021708,-1.0785878896713257,,
1622552021709,,-8.868123054504395,-0.48602294921875
1622552021728,-0.2885012924671173,-9.460687637329102,-0.9995791912078857
1622552021747,-0.20949265360832214,-10.65898609161377,
1622552021748,,,0.5231330990791321
1622552021767,-0.0071826050989329815,,
1622552021768,,-10.627861022949219,0.4752490520477295
1622552021791,0.3998316824436188,-10.682928085327148,0.08858546614646912
1622552021808,2.5498247146606445,-11.289857864379883,-0.05386953800916672
1622552021830,3.1016883850097656,,
1622552021831,,-12.854469299316406,0.20470423996448517
1622552021848,0.44532153010368347,,
1622552021849,,-12.830527305603027,2.783259391784668
1622552021868,-2.542642116546631,-11.095928192138672,3.8367083072662354
1622552021888,-1.5107412338256836,,
1622552021889,,-10.035296440124512,5.12119722366333
1622552021908,1.1552022695541382,,
1622552021909,,-11.166556358337402,7.363367557525635
1622552021932,4.547786235809326,-15.170859336853027,
1622552021933,,,5.189432144165039
1622552021948,3.5865142345428467,-16.9641170501709,4.131195068359375
1622552021968,-2.2685060501098633,-17.07065773010254,-3.778050184249878
1622552021988,-10.523713111877441,,
1622552021989,,-14.33288860321045,-5.118803024291992
1622552022011,-8.163030624389648,-13.814543724060059,0.7912836670875549
1622552022028,0.4405331015586853,-13.872004508972168,
1622552022029,,,2.89339280128479
1622552022050,3.971980571746826,-13.290213584899902,0.05506663769483566
1622552022068,2.5055320262908936,-12.3983736038208,
1622552022069,,,-1.3874398469924927
1622552022088,-0.6093243360519409,-9.640253067016602,
1622552022089,,,-2.977189779281616
1622552022108,-2.537853717803955,-7.4316020011901855,
1622552022109,,,-4.800374507904053
1622552022128,-1.96683669090271,,
1622552022129,,-6.660669326782227,-1.8148049116134644
1622552022148,-0.6404489278793335,-6.147112846374512,
1622552022149,,,-1.7501614093780518
1622552022168,-0.5829881429672241,-5.4875102043151855,-1.723825216293335
1622552022192,-1.282094955444336,-4.216189384460449,-2.36188006401062
1622552022208,-2.716221809387207,-2.831143617630005,
1622552022209,,,-2.73537540435791
1622552022228,-3.3937809467315674,,
1622552022229,,-3.1759085655212402,-2.189497470855713
1622552022248,-4.2329487800598145,,
1622552022249,,-4.5621514320373535,-0.9169792532920837
1622552022271,-4.380191802978516,,
1622552022272,,-6.080075263977051,2.0482394695281982
1622552022288,-3.4153287410736084,,
1622552022289,,-8.815450668334961,8.01339340209961
1622552022310,0.02753331884741783,-13.619416236877441,16.1285400390625
1622552022328,0.871489405632019,-16.588226318359375,12.582727432250977
1622552022348,3.092111587524414,-15.738285064697266,
1622552022349,,,7.128735542297363
1622552022368,0.26096799969673157,-13.275848388671875,
1622552022369,,,6.764816761016846
1622552022388,-1.5969325304031372,-8.71609115600586,
1622552022389,,,5.8873419761657715
1622552022408,-1.3886369466781616,-4.037821292877197,
1622552022409,,,2.8455088138580322
1622552022428,-10.182539939880371,,
1622552022429,,-6.5696892738342285,-7.693767070770264
1622552022448,-14.54836654663086,-13.935450553894043,
1622552022449,,,-0.21787235140800476
1622552022468,-5.61799430847168,-19.359514236450195,11.109095573425293
1622552022488,4.866214752197266,-8.189367294311523,
1622552022489,,,-3.134010076522827
1622552022508,0.14365209639072418,-4.63397741317749,-7.10958194732666
1622552022528,-1.8734627962112427,-5.6191911697387695,
1622552022529,,,-7.433996200561523
1622552022548,-0.4596867263317108,-10.685321807861328,-5.95677375793457
1622552022568,5.962759494781494,,
1622552022569,,-16.270994186401367,-2.316390037536621
1622552022590,7.372944355010986,,
1622552022591,,-15.111003875732422,4.311957359313965
1622552022608,1.282094955444336,,
1622552022609,,-10.741585731506348,2.823961019515991
1622552022628,-2.874239206314087,,
1622552022629,,-9.229647636413574,0.4704606235027313
1622552022648,-4.3610382080078125,-7.655459880828857,
1622552022649,,,-1.6651673316955566
1622552022668,-3.8726212978363037,-6.2835822105407715,
1622552022669,,,-0.5339069962501526
1622552022688,-1.5610195398330688,-7.629123687744141,
1622552022689,,,0.50876784324646
1622552022711,2.229001760482788,,
1622552022712,,-10.994174003601074,2.1284453868865967
1622552022728,1.7310078144073486,,
1622552022729,,-9.563638687133789,2.1320366859436035
1622552022749,0.39145198464393616,,
1622552022750,,-9.004592895507812,0.7769184708595276
1622552022770,-0.3579331636428833,-9.096769332885742,0.9840168952941895
1622552022788,-0.6344634294509888,-9.421183586120605,
1622552022789,,,0.4596867263317108
1622552022808,-0.28131869435310364,-9.627084732055664,
1622552022809,,,0.2944868206977844
1622552022828,0.9361328482627869,,
1622552022829,,-10.20767879486084,-0.730231523513794
1622552022848,0.12449848651885986,,
1622552022849,,-10.825383186340332,0.9217676520347595
1622552022868,-0.6536170840263367,-10.360907554626465,
1622552022869,,,0.6931213736534119
1622552022891,0.07541735470294952,,
1622552022892,,-10.016142845153809,
1622552022893,,,-0.28730419278144836
1622552022908,2.408566951751709,,
1622552022909,,-11.869255065917969,-0.7194576263427734
1622552022930,3.8331170082092285,-13.423091888427734,0.8631097078323364
1622552022948,0.3256114423274994,-12.570755958557129,
1622552022949,,,2.671929121017456
1622552022968,-2.6599581241607666,-10.307038307189941,
1622552022969,,,3.355473756790161
1622552022988,-0.10175357013940811,-10.230423927307129,
1622552022989,,,3.7026329040527344
1622552023008,3.375824451446533,-14.824896812438965,
1622552023009,,,4.944026470184326
1622552023031,3.936067581176758,,
1622552023032,,-15.758635520935059,5.33547830581665
1622552023048,-0.6093243360519409,-14.798561096191406,
1622552023049,,,0.18315643072128296
1622552023068,-8.348581314086914,,
1622552023069,,-14.31014347076416,-5.280411720275879
1622552023088,-9.406818389892578,,
1622552023089,,-13.953407287597656,-1.768117904663086
1622552023174,-0.49799394607543945,-9.35893440246582,-2.4600422382354736
1622552023240,-1.7968484163284302,-6.100425720214844,
1622552023241,,,-1.455674648284912
1622552023307,-2.7030537128448486,,
1622552023308,,-4.181473255157471,-1.0330979824066162
1622552023374,-2.2230162620544434,-6.80551815032959,4.917690277099609
1622552023441,2.7916390895843506,-14.872780799865723,7.908048152923584
1622552023507,-3.049015760421753,,
1622552023508,,-5.228936672210693,3.3243491649627686
1622552023574,-3.600879430770874,,
1622552023575,,-21.333534240722656,6.934805393218994
1622552023641,-5.766434669494629,,
1622552023642,,-3.690661907196045,-5.30195951461792
1622552023708,5.455188751220703,,
1622552023709,,-12.494141578674316,5.634753704071045
1622552023775,-4.2293572425842285,-5.507861137390137,-2.24935245513916
1622552023841,1.6819267272949219,,
1622552023842,,-9.600749015808105,1.290474772453308
1622552023908,-1.0115501880645752,-9.308655738830566,
1622552023909,,,-0.48602294921875
1622552023974,0.7433996200561523,-11.330559730529785,0.19153612852096558
1622552024040,1.8315643072128296,-13.57392692565918,
1622552024041,,,3.021482467651367
1622552024107,4.4975080490112305,-16.19797134399414,3.245340347290039
1622552024174,-8.252813339233398,-14.231135368347168,-5.7975592613220215
1622552024240,2.1511902809143066,-12.929885864257812,
1622552024241,,,-1.522712230682373
1622552024307,-0.2992752194404602,-7.841010570526123,-2.5246856212615967
1622552028087,-2.3295583724975586,-3.685873508453369,-2.9472622871398926
1622552028137,3.4153287410736084,2.5989060401916504,8.65623664855957
1622552028206,3.0382418632507324,1.48081374168396,
1622552028207,,,10.266336441040039
1622552028267,3.976768970489502,1.886630892753601,8.842984199523926
1622552028341,5.519832134246826,,
1622552028342,,3.6343982219696045,9.214085578918457
1622552028400,0.7697358727455139,,
1622552028401,,1.9692308902740479,11.9027738571167
1622552028472,-0.10773907601833344,2.5953147411346436,7.601590633392334
1622552028534,2.580949544906616,6.701370716094971,8.814253807067871
1622552028601,2.9328970909118652,4.062960147857666,
1622552028602,,,8.23006820678711
1622552028670,0.7936778664588928,,
1622552028671,,4.531026840209961,8.000225067138672
1622552028734,1.2761094570159912,3.508702516555786,7.575253963470459
1622552028806,1.45806884765625,3.6834793090820312,7.8278422355651855
1622552028867,1.6615760326385498,3.6355953216552734,10.049661636352539
1622552028934,0.7733271718025208,4.003105163574219,8.10437297821045
1622552029000,-0.08738835901021957,3.934870481491089,
1622552029001,,,9.855731010437012
1622552029067,0.690727174282074,3.8175547122955322,7.829039573669434
1622552029135,-0.7541735172271729,4.663905143737793,7.959523677825928
1622552029200,-2.0254945755004883,,
1622552029201,,5.568912982940674,10.41956615447998
1622552029269,-0.8319851160049438,4.5836992263793945,8.552088737487793
1622552029335,0.29568392038345337,,
1622552029336,,4.006696701049805,8.882488250732422
1622552029400,-0.41539400815963745,,
1622552029401,,4.425682067871094,8.738836288452148
1622552029469,-0.4620809257030487,4.474762916564941,7.943961143493652
1622552029533,0.3016694188117981,,
1622552029534,,3.9157168865203857,8.699332237243652
1622552029601,-0.31364041566848755,4.1192240715026855,8.987833023071289
1622552029667,0.05147533491253853,4.291606426239014,8.42040729522705
1622552029733,-0.017956512048840523,,
1622552029734,,4.384980201721191,8.83939266204834
1622552029800,-0.023942016065120697,4.338293552398682,9.339780807495117
1622552029867,0.3100491166114807,4.689043998718262,7.083245754241943
1622552029933,-0.3555389642715454,,
1622552029934,,4.5609540939331055,9.925163269042969
1622552030000,-0.8487445116043091,,
1622552030001,,4.9368438720703125,8.342596054077148
1622552030067,-0.28969839215278625,4.820724964141846,8.26358699798584
1622552030133,0.4165911078453064,,
1622552030134,,4.0976762771606445,8.117541313171387
1622552030200,-0.27413609623908997,4.507084846496582,9.44871711730957
1622552030267,-0.1256955862045288,4.613626480102539,8.555679321289062
1622552030333,0.2106897532939911,,
1622552030334,,4.043806552886963,8.324639320373535
1622552030400,0.21188685297966003,4.338293552398682,9.580398559570312
1622552030467,0.2753331959247589,4.5825018882751465,8.396465301513672
1622552030533,0.33758243918418884,4.364629745483398,8.81664752960205
1622552030600,0.005985504016280174,,
1622552030601,,4.323928356170654,8.249221801757812
1622552030667,-0.002394201699644327,4.290409564971924,9.10993766784668
1622552030733,0.09935937076807022,,
1622552030734,,4.4077253341674805,8.485051155090332
1622552030800,0.17238251864910126,4.2963948249816895,8.639476776123047
1622552030867,-0.009576806798577309,4.395754337310791,8.553285598754883
1622552030934,0.4106055796146393,4.2544965744018555,8.665813446044922
1622552031058,0.45489832758903503,4.116829872131348,8.968679428100586
1622552031101,0.2322375625371933,4.05817174911499,9.485827445983887
1622552031163,-0.13766659796237946,4.0761284828186035,8.51258373260498
1622552031384,-0.2777273952960968,4.037821292877197,8.71609115600586
1622552031429,-0.26096799969673157,3.750516891479492,
1622552031430,,,8.96389102935791
1622552031758,-0.2561795711517334,,
1622552031759,-0.33758243918418884,3.8151605129241943,8.542511940002441
1622552031801,-0.3734954595565796,3.8295257091522217,8.913613319396973
1622552031867,-0.6500257849693298,3.9169139862060547,9.412803649902344
1622552031942,-0.4213795065879822,3.93367338180542,8.854954719543457
1622552032026,-0.5925649404525757,3.9013516902923584,9.058462142944336
1622552032080,-0.5315127968788147,,
1622552032081,,3.8307228088378906,9.107542991638184
1622552032147,-0.3471592366695404,3.7708675861358643,8.939949035644531
1622552032216,-0.5291185975074768,3.709815502166748,8.912415504455566
1622552032271,-0.8427590131759644,3.8546648025512695,8.641871452331543
1622552032338,-0.5650315880775452,3.7660791873931885,9.07641887664795
1622552032402,-0.568622887134552,3.8331170082092285,8.83699893951416
1622552032467,-0.6799532771110535,3.84269380569458,9.030928611755371
1622552032546,-0.7170634269714355,4.062960147857666,8.763975143432617
1622552032616,-0.646434485912323,4.041412353515625,8.932766914367676
1622552032668,-0.8391677141189575,,
