timestamp,AccX,AccY,AccZ
1622552110618,-0.5398924946784973,4.557363033294678,8.280346870422363
1622552110701,-0.6416460275650024,5.13197135925293,8.276755332946777
1622552110748,-0.7374141216278076,4.869806289672852,8.449137687683105
1622552110814,-0.6177040338516235,5.764040470123291,6.89530086517334
1622552110891,,,7.332242488861084
1622552110892,3.004723072052002,7.618350028991699,
1622552110948,-0.4225766062736511,,7.785943984985352
1622552110949,,5.8203043937683105,
1622552111023,,,7.231686115264893
1622552111024,-0.9397241473197937,6.22731876373291,
1622552111087,-0.6847416758537292,6.236895561218262,7.378929615020752
1622552111162,-0.6440402865409851,6.2404866218566895,6.53257942199707
1622552111233,-0.07900865375995636,5.882553577423096,7.726089000701904
1622552111295,-1.964442491531372,6.452373504638672,7.3418192863464355
1622552111356,-1.1013327836990356,5.700594425201416,7.0341644287109375
1622552111424,-1.9500772953033447,6.517016887664795,5.390544891357422
1622552111498,-1.9560627937316895,6.8162922859191895,7.8781208992004395
1622552111580,,,6.631938934326172
1622552111581,-1.8351556062698364,6.657077789306641,
1622552111641,-2.250549554824829,7.485471725463867,6.172252178192139
1622552111696,-1.8698714971542358,7.293935298919678,6.657077789306641
1622552111768,-0.8188169598579407,6.981492042541504,4.224568843841553
1622552111851,-3.0992941856384277,8.22887134552002,3.7924153804779053
1622552111902,-2.7545289993286133,8.474276542663574,2.1763293743133545
1622552112093,-1.4496891498565674,9.260771751403809,2.3786394596099854
1622552112147,-1.9129672050476074,10.291476249694824,1.7262194156646729
1622552112214,-2.270900249481201,10.457873344421387,1.4425065517425537
1622552112281,-2.713827610015869,10.764330863952637,2.6348190307617188
1622552112347,-1.5298948287963867,9.197325706481934,2.582146644592285
1622552112414,-3.0178911685943604,10.392032623291016,2.145204782485962
1622552112481,-2.4396915435791016,9.35893440246582,1.521515130996704
1622552112548,-3.1447839736938477,9.886856079101562,2.255337953567505
1622552112614,,,3.2537200450897217
1622552112615,-3.56017804145813,9.002198219299316,
1622552112681,-3.4823663234710693,8.755595207214355,2.076969861984253
1622552112748,-3.6128504276275635,8.887276649475098,1.4472949504852295
1622552112814,,,1.647210717201233
1622552112815,-3.8953661918640137,8.639476776123047,
1622552112881,,,2.234987258911133
1622552112882,-4.58968448638916,8.59997272491455,
1622552112947,-3.064578056335449,,0.8307880163192749
1622552112948,,7.2125325202941895,
1622552113014,-2.4612393379211426,7.2352776527404785,1.1336544752120972
1622552113080,,,0.5949591398239136
1622552113081,-3.043030261993408,10.222043991088867,
1622552118089,-2.5785553455352783,11.026495933532715,2.103306293487549
1622552118152,,,0.6009446382522583
1622552118153,-0.27413609623908997,9.684545516967773,
1622552118200,,,0.16998831927776337
1622552118201,1.479616641998291,11.244368553161621,
1622552118267,0.9528923034667969,10.690110206604004,-3.4548330307006836
1622552118333,,,1.8267759084701538
1622552118334,0.3172317147254944,14.668076515197754,
1622552118400,,,-1.5765818357467651
1622552118401,-6.538564682006836,12.073959350585938,
1622552118467,-2.494758129119873,10.448296546936035,-0.39624038338661194
1622552118534,-1.4185645580291748,6.218938827514648,-0.2082955539226532
1622552118601,-0.016759412363171577,2.31758713722229,-0.48243165016174316
1622552118667,,,-5.242104530334473
1622552118668,-0.03950432687997818,8.29590892791748,
1622552118734,-0.33039984107017517,13.221979141235352,-5.5545477867126465
1622552118802,,,-10.626664161682129
1622552118803,-0.6572083830833435,4.206612586975098,
1622552118871,,,-9.132682800292969
1622552118872,-8.705317497253418,22.33431053161621,
1622552118938,0.4620809257030487,,0.28371289372444153
1622552118939,,4.577713489532471,
1622552119002,0.5554547905921936,13.133393287658691,0.4644751250743866
1622552119072,-0.39624038338661194,6.010643482208252,-0.19273324310779572
1622552119137,,,-1.1959037780761719
1622552119138,1.5741876363754272,10.520122528076172,
1622552119202,-0.10534487664699554,8.349778175354004,0.39384618401527405
1622552119269,-0.8379706144332886,,0.8954314589500427
1622552119270,,10.277111053466797,
1622552119339,1.3275848627090454,12.075156211853027,1.6891093254089355
1622552119401,2.1045033931732178,,-2.4372973442077637
1622552119402,,9.910798072814941,
1622552119468,,,2.625242233276367
1622552119469,-1.557428240776062,13.636176109313965,
1622552119536,,,-3.7600936889648438
1622552119537,-0.8451532125473022,12.265495300292969,
1622552119605,-2.7222073078155518,,0.4106055796146393
1622552119606,,9.3026704788208,
1622552119672,-0.5626373887062073,,0.5985504388809204
1622552119673,,4.878185749053955,
1622552119736,-1.1827356815338135,3.42490553855896,-1.0905588865280151
1622552119801,-0.15322890877723694,11.251550674438477,-5.109226226806641
1622552119870,-0.06703764945268631,13.285425186157227,-4.185064792633057
1622552119937,,,-8.450334548950195
1622552119938,-2.103306293487549,3.8067808151245117,
1622552120004,,,-5.147533416748047
1622552120005,-6.072892665863037,17.424999237060547,
1622552120069,,,2.233790159225464
1622552120070,-0.6847416758537292,7.705738067626953,
1622552120136,,,-0.2059013396501541
1622552120137,0.7637503147125244,12.553997039794922,
1622552120205,-0.08259996026754379,6.682217121124268,0.5219359993934631
1622552120269,1.3299790620803833,9.860519409179688,-0.52552729845047
1622552120334,0.002394201699644327,8.978256225585938,0.014365210197865963
1622552120401,,,1.8483237028121948
1622552120402,0.10295066982507706,10.577583312988281,
1622552120471,,,-0.812831461429596
1622552120472,-0.40222588181495667,12.570755958557129,
1622552120538,1.8710685968399048,,1.677138328552246
1622552120539,,15.267824172973633,
1622552120601,,,1.3527239561080933
1622552120602,-5.081693172454834,12.099098205566406,
1622552120669,,,-1.0965443849563599
1622552120670,-0.28131869435310364,11.042057991027832,
1622552120738,-2.232593059539795,,1.2258312702178955
1622552120739,,8.036137580871582,
1622552120805,-1.2210428714752197,4.786009311676025,-0.8667010068893433
1622552120869,,,-1.5885528326034546
1622552120870,-1.136048674583435,4.677073001861572,
1622552120938,-0.5363011956214905,11.530475616455078,-8.325836181640625
1622552121005,-1.4544775485992432,13.547590255737305,-4.1647138595581055
1622552121068,,,-6.752845764160156
1622552121069,-1.6627731323242188,8.20373249053955,
1622552121136,,,0.021547814831137657
1622552121137,2.0266916751861572,4.345476150512695,
1622552130087,-0.45848962664604187,,0.26575639843940735
1622552130088,1.459265947341919,15.64371395111084,
1622552130138,-5.195417881011963,12.483367919921875,0.8607155084609985
1622552130200,-0.002394201699644327,,-1.9548656940460205
1622552130201,,11.683704376220703,
1622552130267,-1.802833914756775,7.201758861541748,0.4692635238170624
1622552130335,-1.2749123573303223,3.8367083072662354,-0.30526071786880493
1622552130404,-1.3898340463638306,3.8810009956359863,-2.9951462745666504
1622552130471,,,-11.73398208618164
1622552130472,0.009576806798577309,14.177265167236328,
1622552130535,-1.237802267074585,,-5.524620532989502
1622552130536,,10.370484352111816,
1622552130602,-2.5318682193756104,2.8395233154296875,-3.86543869972229
1622552130671,,,5.056553840637207
1622552130672,4.284423828125,5.602431774139404,
1622552130735,-3.665522813796997,16.311697006225586,1.1563993692398071
1622552130802,,,-0.5135562419891357
1622552130803,-1.171961784362793,7.773972988128662,
1622552130871,,,-1.722628116607666
1622552130872,0.17717093229293823,9.99220085144043,
1622552130939,0.13407529890537262,8.888473510742188,-0.7350199222564697
1622552131003,-0.7769184708595276,9.786299705505371,0.3519476354122162
1622552140086,1.8339585065841675,12.148179054260254,-0.07422025501728058
1622552140133,,,-3.6104562282562256
1622552140134,-0.9385270476341248,11.653777122497559,
1622552140200,,,-0.3519476354122162
1622552140201,-2.0673930644989014,6.947973251342773,
1622552140221,-2.1140801906585693,7.129932880401611,0.5351040959358215
1622552140240,,,1.6292542219161987
1622552140241,-1.599326729774475,6.45357084274292,
1622552140261,-1.3838485479354858,5.313930511474609,0.8343793153762817
1622552140282,-1.3754688501358032,4.496310710906982,0.08619125932455063
1622552140300,,,-0.3232172429561615
1622552140301,-1.5095441341400146,3.912125587463379,
1622552140320,,,-1.0283095836639404
1622552140321,-1.8710685968399048,3.8810009956359863,
1622552140341,-1.7741034030914307,4.173093795776367,-1.5490485429763794
1622552140360,,,-3.183091163635254
1622552140361,-1.2868833541870117,4.552574634552002,
1622552140380,-0.9636662006378174,,-4.346673011779785
1622552140381,,6.762422561645508,
1622552140400,,,-6.385335922241211
1622552140401,-1.1408370733261108,11.702857971191406,
1622552140421,-0.25977087020874023,15.879542350769043,-12.112266540527344
1622552140440,,,-7.24605131149292
1622552140441,-0.3124433159828186,12.812570571899414,
1622552140461,-1.259350061416626,11.383232116699219,-1.8160020112991333
1622552140480,,,-4.876988887786865
1622552140481,-1.523909330368042,9.063250541687012,
1622552140500,,,-7.975085735321045
1622552140501,-0.645237386226654,5.082890033721924,
1622552140520,,,-8.508993148803711
1622552140521,-2.5737667083740234,3.955221176147461,
1622552140540,,,-0.1388636976480484
1622552140541,-4.867412090301514,5.900510311126709,
1622552140561,-9.974244117736816,15.387534141540527,-0.2106897532939911
1622552140581,-4.514267444610596,24.327484130859375,-6.206967830657959
1622552140600,,,4.571728229522705
1622552140601,4.489128112792969,6.675034523010254,
1622552140621,0.4836287498474121,2.1356279850006104,2.673126220703125
1622552140641,-1.400607943534851,2.9484593868255615,1.5634137392044067
1622552140661,,,4.5836992263793945
1622552140662,-1.5526398420333862,8.828619003295898,
1622552140682,-0.5901707410812378,18.193538665771484,-1.1635819673538208
1622552140701,3.5254619121551514,,-0.7386112213134766
1622552140702,,16.15128517150879,
1622552140722,0.16998831927776337,8.637083053588867,-0.9792284965515137
1622552140742,-2.5043349266052246,8.13908863067627,0.5506663918495178
1622552140761,,,0.8331822156906128
1622552140762,-2.10210919380188,6.682217121124268,
1622552140781,-0.21667525172233582,5.249287128448486,0.524330198764801
1622552140801,,,-0.8822633028030396
1622552140802,0.3902548849582672,7.876923561096191,
1622552140821,,,-1.6376339197158813
1622552140822,0.8355764150619507,10.327388763427734,
1622552140842,1.765723705291748,9.84615421295166,0.8092401623725891
1622552140861,1.2509703636169434,8.957905769348145,-1.0330979824066162
1622552140881,-0.035913024097681046,9.08838939666748,-1.0127472877502441
1622552140901,-0.09816227108240128,8.847772598266602,0.13766659796237946
1622552140921,-0.3878606855869293,9.187748908996582,-0.545877993106842
1622552140940,,,0.21667525172233582
1622552140941,0.021547814831137657,9.761159896850586,
1622552140961,-0.20350714027881622,,0.7410054206848145
1622552140962,,10.158597946166992,
1622552140981,0.5446808934211731,10.615890502929688,1.6735470294952393
1622552141003,,,0.5351040959358215
1622552141004,1.5753847360610962,12.040440559387207,
1622552141021,0.547075092792511,13.043610572814941,-0.4034229815006256
1622552141042,-0.7805097699165344,12.442666053771973,-1.4544775485992432
1622552141061,-0.06464344263076782,10.843339920043945,-2.1164743900299072
1622552141081,1.9800047874450684,11.112687110900879,-0.5518634915351868
1622552141102,1.0582371950149536,15.286977767944336,0.31603461503982544
1622552141121,,,2.4624364376068115
1622552141122,0.12449848651885986,13.91270637512207,
1622552141140,,,1.8351556062698364
1622552141141,-2.4013843536376953,11.738770484924316,
1622552141160,,,0.6667851805686951
1622552141161,-4.972756862640381,12.216414451599121,
1622552141218,-5.426458358764648,13.162123680114746,1.9476830959320068
1622552141221,-0.6823474764823914,13.053187370300293,-3.8762125968933105
1622552141240,-0.2777273952960968,,-0.2669534981250763
1622552141241,,12.42351245880127,
1622552141260,,,0.0035913025494664907
1622552141261,-1.7286136150360107,10.676942825317383,
1622552141280,,,-0.7709329724311829
1622552141281,-1.8339585065841675,8.200140953063965,
1622552141301,-2.6431987285614014,7.645883083343506,-0.2322375625371933
1622552141320,,,1.6891093254089355
1622552141321,-2.367865562438965,6.147112846374512,
1622552141341,-1.7836803197860718,4.698620796203613,0.6931213736534119
1622552141362,-1.4460978507995605,3.731363296508789,-0.8918401598930359
1622552141381,-1.5047557353973389,,-1.2270283699035645
1622552141382,,3.6284127235412598,
1622552141401,,,-1.2186486721038818
1622552141402,-1.3850456476211548,3.906140089035034,
1622552141421,,,-1.4975731372833252
1622552141422,-1.381454348564148,4.301183223724365,
1622552141441,,,-2.516305923461914
1622552141442,-1.456871747970581,4.643554210662842,
1622552141461,-0.9756371974945068,,-4.627991676330566
1622552141462,,5.778405666351318,
1622552141482,-0.50876784324646,8.754398345947266,-6.8593878746032715
1622552141501,,,-9.089587211608887
1622552141502,-0.5770025849342346,12.467804908752441,
1622552141521,0.25258827209472656,,-7.449558734893799
1622552141522,,14.335282325744629,
1622552141542,,,-4.966771602630615
1622552141562,-0.7314286231994629,,-4.902127742767334
1622552141563,,12.315773963928223,
1622552141581,-0.8702923059463501,,-7.181407928466797
1622552141582,,8.831012725830078,
1622552141602,,,-8.281543731689453
1622552141603,-1.8758569955825806,4.478354454040527,
1622552141621,,,-8.130708694458008
1622552141622,-2.736572504043579,9.159018516540527,
1622552141641,-4.960785865783691,,-0.04908113554120064
1622552141642,,14.754267692565918,
1622552141661,,,-1.400607943534851
1622552141662,-5.30076265335083,16.450559616088867,
1622552141681,-1.5095441341400146,11.933897972106934,-3.5206735134124756
1622552141702,0.7242460250854492,2.7880477905273438,1.9943699836730957
1622552141721,-1.7693150043487549,,1.400607943534851
1622552141722,,2.279279947280884,
1622552141743,-2.337938070297241,4.914099216461182,2.6455929279327393
1622552141761,,,3.7433342933654785
1622552141762,-2.056619167327881,11.14381217956543,
1622552141781,,,0.8870517015457153
1622552141782,-0.35913026332855225,19.175161361694336,
1622552141801,,,-0.2753331959247589
1622552141802,5.194220542907715,13.980940818786621,
1622552141821,1.4867992401123047,,-0.33518823981285095
1622552141822,,9.927556991577148,
1622552141841,-2.0697872638702393,,-0.38307225704193115
1622552141842,,8.735244750976562,
1622552141861,,,-0.36990416049957275
1622552141862,-1.7274165153503418,7.0593037605285645,
1622552141882,-0.2645592987537384,6.115988254547119,0.6129156351089478
1622552141901,,,0.1867477297782898
1622552141902,0.09816227108240128,7.593210697174072,
1622552141921,0.5291185975074768,,-2.366668462753296
1622552141922,,10.585963249206543,
1622552141941,,,-0.8667010068893433
1622552141942,0.9229647517204285,9.338583946228027,
1622552141961,,,-0.7841010689735413
1622552141962,0.395043283700943,8.200140953063965,
1622552141980,,,-0.5901707410812378
1622552141981,-0.14844051003456116,8.732851028442383,
1622552142000,,,0.02992752194404602
1622552142001,-0.2561795711517334,8.918401718139648,
1622552142021,-0.2585737705230713,9.394847869873047,-0.2645592987537384
1622552142040,,,-0.5434837937355042
1622552142041,-0.7362170219421387,10.822988510131836,
1622552142060,,,0.0454898327589035
1622552142061,0.06344634294509888,10.643424034118652,
1622552142081,1.2617442607879639,10.377667427062988,2.006340980529785
1622552142100,,,1.5131354331970215
1622552142101,1.844732403755188,11.203666687011719,
1622552142120,,,-0.5913678407669067
1622552142121,0.8271966576576233,12.962207794189453,
1622552142141,,,-1.5394717454910278
1622552142142,-0.629675030708313,13.080720901489258,
1622552142161,0.1604115068912506,,-2.340332269668579
1622552142162,,11.641805648803711,
1622552142181,2.0697872638702393,11.97220516204834,0.3627215623855591
1622552142201,,,0.6763619780540466
1622552142202,1.5131354331970215,15.500061988830566,
1622552142220,,,2.4600422382354736
1622552142221,-0.8870517015457153,11.456254959106445,
1622552142240,,,-1.0785878896713257
1622552142241,-5.058948040008545,10.852916717529297,
1622552142260,,,1.7872716188430786
1622552142261,-6.755239963531494,13.414711952209473,
1622552142283,-5.3761796951293945,13.28063678741455,0.3495534360408783
1622552142301,,,-4.2951979637146
1622552142302,-1.6927006244659424,13.035231590270996,
1622552142323,,,-1.8842366933822632
1622552142324,-0.8738836050033569,11.911153793334961,
1622552142341,,,0.363918662071228
1622552142342,-1.194706678390503,10.918756484985352,
1622552142361,,,-0.8463503122329712
1622552142362,-1.0067617893218994,8.7484130859375,
1622552142381,-1.5670050382614136,,-0.20350714027881622
1622552142382,,7.696161270141602,
1622552142401,-1.680729627609253,,0.6751648783683777
1622552142402,,7.092822551727295,
1622552142421,,,1.294066071510315
1622552142422,-1.4173674583435059,5.503072738647461,
1622552142441,-1.780089020729065,,0.20470423996448517
1622552142442,,4.222174644470215,
1622552142462,,,-0.7026981711387634
1622552142463,-1.7262194156646729,3.691859006881714,
1622552142481,-1.6843209266662598,,-0.545877993106842
1622552142482,,3.8738183975219727,
1622552142501,-1.8638859987258911,,-0.6979097723960876
1622552142502,,4.310760021209717,
1622552142521,,,-1.820790410041809
1622552142522,-1.1300631761550903,4.777629375457764,
1622552142542,-1.01753568649292,5.543774127960205,-3.5924997329711914
1622552142561,-0.6799532771110535,,-4.559757232666016
1622552142562,,8.383296966552734,
1622552142582,0.17956513166427612,12.90833854675293,-8.158242225646973
1622552142601,,,-10.991780281066895
1622552142602,1.0989385843276978,15.356410026550293,
1622552142622,,,-7.243657112121582
1622552142623,-0.38546648621559143,14.15092945098877,
1622552142641,,,-3.5218706130981445
1622552142642,-1.4401123523712158,12.415132522583008,
1622552142661,-1.138442873954773,,-6.257246017456055
1622552142662,,8.773551940917969,
1622552142681,-1.3299790620803833,5.236119270324707,-8.649053573608398
1622552142701,,,-8.777143478393555
1622552142702,-3.6942532062530518,9.892841339111328,
1622552142721,,,-6.034585475921631
1622552142722,-3.9839515686035156,18.677167892456055,
1622552142741,,,3.84269380569458
1622552142742,-1.9800047874450684,13.405135154724121,
1622552142761,,,-1.337161660194397
1622552142762,-4.661510944366455,6.1949968338012695,
1622552142781,,,-2.469619035720825
1622552142782,-2.6132712364196777,0.7972691655158997,
1622552142804,-2.5450363159179688,,3.3231520652770996
1622552142805,,3.8115692138671875,
1622552142821,-2.719813108444214,10.382455825805664,6.757634162902832
1622552142841,-1.742978811264038,20.374656677246094,1.699883222579956
1622552142861,,,-0.27054479718208313
1622552142862,6.015431880950928,16.992847442626953,
1622552142881,3.4332852363586426,,-0.11252748221158981
1622552142882,,9.26915168762207,
1622552142901,-0.6033388376235962,,-0.768538773059845
1622552142902,,8.08282470703125,
1622552142922,,,-0.5614402890205383
1622552142923,-2.559401512145996,8.001421928405762,
1622552142941,,,-0.16759411990642548
1622552142942,-0.9038111567497253,6.914454460144043,
1622552142961,,,0.30047231912612915
1622552142962,0.33518823981285095,7.398083209991455,
1622552142982,0.05386953800916672,9.408015251159668,-0.5446808934211731
1622552143001,,,-2.2852654457092285
1622552143002,0.35913026332855225,9.910798072814941,
1622552143021,0.6153098344802856,8.869319915771484,-0.35075053572654724
1622552143041,0.20709845423698425,8.009801864624023,-0.5877765417098999
1622552143062,-0.47884035110473633,8.688557624816895,-0.5722141861915588
1622552143081,,,0.07062894850969315
1622552143082,-0.021547814831137657,8.978256225585938,
1622552143101,,,-0.5183446407318115
1622552143102,-0.6165069341659546,9.621099472045898,
1622552143121,,,0.4106055796146393
1622552143122,-0.5614402890205383,10.26513957977295,
1622552143141,,,0.5351040959358215
1622552143142,-0.5135562419891357,10.60152530670166,
1622552143162,1.4772224426269531,10.582371711730957,1.9776105880737305
1622552143181,,,1.1312602758407593
1622552143182,2.517503023147583,12.542025566101074,
1622552143202,1.92134690284729,14.12698745727539,-0.7206547260284424
1622552143221,,,-1.7274165153503418
1622552143222,0.5386953949928284,13.217190742492676,
1622552143242,1.1839327812194824,10.973823547363281,-1.699883222579956
1622552143262,1.2066776752471924,9.427168846130371,-0.8367735147476196
1622552143281,,,-0.6847416758537292
1622552143282,0.363918662071228,11.320982933044434,
1622552143301,,,0.3447650372982025
1622552143302,-1.890222191810608,13.78940486907959,
1622552143321,,,2.515108823776245
1622552143322,-1.459265947341919,15.344438552856445,
1622552143341,,,-0.40701428055763245
1622552143342,-5.60602331161499,13.564350128173828,
1622552143362,-5.612008571624756,12.103886604309082,2.807201385498047
1622552143381,-3.5697548389434814,,0.6428431272506714
1622552143382,,13.174095153808594,
1622552143402,,,-4.406527996063232
1622552143403,-0.39863458275794983,12.181697845458984,
1622552143422,-0.8044517636299133,11.933897972106934,-0.9385270476341248
1622552143441,,,-0.9038111567497253
1622552143442,-2.5438392162323,9.679757118225098,
1622552143461,-3.095702886581421,7.243657112121582,-1.0127472877502441
1622552143481,,,0.872686505317688
1622552143482,-3.2585084438323975,6.762422561645508,
1622552143501,-1.5682021379470825,,2.0398597717285156
1622552143502,,5.87896203994751,
1622552143522,-1.2222399711608887,5.057751178741455,0.7170634269714355
1622552143542,-1.4628572463989258,5.078101634979248,-0.48602294921875
1622552143561,-0.8822633028030396,,-0.09696517139673233
1622552143562,,4.252102375030518,
1622552143581,,,-0.16160862147808075
1622552143582,-1.3874398469924927,3.2118215560913086,
1622552143601,-1.8842366933822632,,-1.436521053314209
1622552143602,,3.224989652633667,
1622552143687,,,-10.805032730102539
1622552143688,-0.25498247146606445,14.449007034301758,
1622552143758,-2.213439464569092,7.738059997558594,-6.781576156616211
1622552143822,-9.503783226013184,,4.424484729766846
1622552143823,,18.1719913482666,
1622552143890,-1.6735470294952393,2.677914619445801,1.557428240776062
1622552143958,4.766855716705322,14.174871444702148,0.14844051003456116
1622552144026,-1.1743559837341309,6.112396717071533,0.646434485912323
1622552144092,,,-1.5478514432907104
1622552144093,1.2844891548156738,11.058817863464355,
1622552144156,-0.6153098344802856,8.762778282165527,-0.2645592987537384
1622552144221,,,0.7781155705451965
1622552144222,0.3842693865299225,10.359710693359375,
1622552149087,0.7481880187988281,12.27267837524414,0.8990227580070496
1622552149147,-1.0283095836639404,11.185709953308105,-7.281964302062988
1622552149154,-1.091755986213684,16.2650089263916,-11.487380027770996
1622552149173,,,-9.475052833557129
1622552149174,-0.2322375625371933,14.844050407409668,
1622552149193,,,-3.5901055335998535
1622552149194,-0.22266076505184174,12.202049255371094,
1622552149214,-1.0630255937576294,10.201693534851074,-2.5474305152893066
1622552149234,-1.2653355598449707,7.33703088760376,-7.206547260284424
1622552149254,-2.2828712463378906,3.9420530796051025,-8.252813339233398
1622552149273,-3.026270866394043,,-8.528146743774414
1622552149274,,5.814318656921387,
1622552149293,,,-4.126406669616699
1622552149294,-3.089717388153076,8.778340339660645,
1622552149313,,,4.793191909790039
1622552149314,-6.358999729156494,12.94305419921875,
1622552149333,,,0.038307227194309235
1622552149334,2.675520420074463,17.214309692382812,
1622552149353,,,2.5043349266052246
1622552149354,1.213860273361206,3.581725835800171,
1622552149373,,,0.912190854549408
1622552149374,-2.075772762298584,2.1739351749420166,
1622552149394,-2.4576480388641357,3.664325714111328,2.784456491470337
1622552149413,,,3.514688014984131
1622552149414,-3.1866824626922607,11.966219902038574,
1622552149434,-0.30286651849746704,18.916587829589844,-1.1839327812194824
1622552149454,,,0.1951274424791336
1622552149455,3.9456443786621094,14.189236640930176,
1622552149473,,,-0.2585737705230713
1622552149474,1.4257471561431885,9.232041358947754,
1622552149494,,,-0.9971849918365479
1622552149495,-1.5765818357467651,8.177395820617676,
1622552149517,,,0.8834604024887085
1622552149518,-1.48081374168396,6.661866188049316,
1622552149535,,,1.3323732614517212
1622552149536,-0.19033902883529663,5.632359504699707,
1622552149555,,,-0.3818751573562622
1622552149556,-0.16519992053508759,8.08282470703125,
1622552149574,,,-1.2521674633026123
1622552149575,0.1041477769613266,10.267534255981445,
1622552149594,0.6045359373092651,9.651026725769043,-0.48482584953308105
1622552149614,0.3148375153541565,,-1.2832920551300049
1622552149615,,8.631096839904785,
1622552149634,,,-0.21428105235099792
1622552149635,0.15083470940589905,8.774748802185059,
1622552149654,,,0.38905778527259827
1622552149655,0.43335050344467163,9.008183479309082,
1622552149675,0.07182604819536209,9.672574996948242,-0.152031809091568
1622552149694,0.41539400815963745,9.896432876586914,0.1975216418504715
1622552149714,0.3794809579849243,10.796652793884277,1.2856862545013428
1622552149734,0.9876081943511963,10.946290016174316,1.5705963373184204
1622552149754,1.6735470294952393,11.595118522644043,0.2777273952960968
1622552149774,0.3603273630142212,13.051990509033203,-0.0071826050989329815
1622552149795,-0.7398083209991455,12.774263381958008,-1.4257471561431885
1622552149816,1.3192051649093628,11.172542572021484,-0.812831461429596
1622552149834,,,1.7046716213226318
1622552149835,1.8303672075271606,14.12818431854248,
1622552149858,1.0019733905792236,17.306486129760742,1.9943699836730957
1622552149875,-1.0797849893569946,,1.9812018871307373
1622552149876,,13.572729110717773,
1622552149895,-5.13197135925293,,-0.6308721303939819
1622552149896,,8.89445972442627,
1622552149915,-4.8494553565979,13.049596786499023,2.7880477905273438
1622552149934,,,0.020350715145468712
1622552149935,-2.9867665767669678,12.437877655029297,
1622552149954,,,-3.841496706008911
1622552149955,-0.829590916633606,12.138602256774902,
1622552149975,-1.2617442607879639,12.156558990478516,-0.7936778664588928
1622552149997,,,0.7350199222564697
1622552149998,-1.6615760326385498,11.27070426940918,
1622552150018,-1.9584569931030273,,-0.768538773059845
1622552150019,,9.259574890136719,
1622552150034,,,-0.365115761756897
1622552150035,-2.1930887699127197,7.826645374298096,
1622552150055,,,0.6739677786827087
1622552150058,-2.382230758666992,7.078457355499268,
1622552150074,,,0.8188169598579407
1622552150075,-1.8854337930679321,5.237316131591797,
1622552150098,-1.2401964664459229,4.010287761688232,-0.29568392038345337
1622552150115,-0.9050082564353943,,-1.4640543460845947
1622552150116,,4.1431660652160645,
1622552150134,,,-0.767341673374176
1622552150135,-1.5083470344543457,4.578910827636719,
1622552150157,-1.4652514457702637,4.211400985717773,-0.3627215623855591
1622552150175,-1.113303780555725,,-1.2988544702529907
1622552150176,,4.129997730255127,
1622552150194,,,-2.890998601913452
1622552150195,-0.5422866940498352,,
1622552150215,,,-6.943184852600098
1622552150216,-0.6248866319656372,7.7847466468811035,
1622552150234,,,-9.35654067993164
1622552150235,-0.4165911078453064,11.389217376708984,
1622552150254,,,-10.141838073730469
1622552150255,0.31364041566848755,14.384364128112793,
1622552150274,,,-6.7911529541015625
1622552150275,0.17836803197860718,14.505270957946777,
1622552150298,-0.4920084476470947,12.987346649169922,-3.646369218826294
1622552150315,,,-5.272032260894775
1622552150316,-0.7972691655158997,10.20648193359375,
1622552150338,-1.1803414821624756,6.490680694580078,-8.56645393371582
1622552150355,,,-10.781089782714844
1622552150356,-2.3726539611816406,8.23006820678711,
1622552150376,-6.045359134674072,,1.7896658182144165
1622552150377,,11.131840705871582,
1622552150394,,,0.4644751250743866
1622552150395,-9.490615844726562,13.421895027160645,
1622552150414,,,-5.036203384399414
1622552150415,-2.831143617630005,10.708066940307617,
1622552150434,,,2.456450939178467
1622552150435,2.6144683361053467,3.8989574909210205,
1622552150457,0.11252748221158981,4.917690277099609,4.050989151000977
1622552150477,,,3.5206735134124756
1622552150478,-1.3527239561080933,8.904036521911621,
1622552150495,-0.7350199222564697,,0.6308721303939819
1622552150496,,14.647726058959961,
1622552150514,,,-0.6440402865409851
1622552150515,3.0765492916107178,,
1622552150516,,13.292608261108398,
1622552150534,,,-1.9931728839874268
1622552150535,0.16879121959209442,9.768342971801758,
1622552150558,-2.7712883949279785,9.117119789123535,-0.4908113479614258
1622552150575,-2.7664999961853027,,-0.02992752194404602
1622552150576,,7.881711959838867,
1622552150594,,,0.9457096457481384
1622552150595,-0.5638344883918762,6.143521785736084,
1622552150614,,,1.4245500564575195
1622552150615,0.38067805767059326,6.349422931671143,
1622552150634,,,-0.4082113802433014
1622552150635,1.2258312702178955,9.493009567260742,
1622552150654,,,-2.5749640464782715
1622552150655,0.52552729845047,10.988188743591309,
1622552150675,1.0522516965866089,,0.25977087020874023
1622552150676,,9.137471199035645,
1622552150696,,,-0.5805938839912415
1622552150697,0.3495534360408783,8.382100105285645,
1622552150714,,,-0.24660277366638184
1622552150715,-0.4668693244457245,8.889671325683594,
1622552150734,,,0.3555389642715454
1622552150735,-0.42377370595932007,9.120711326599121,
1622552150754,,,-0.40222588181495667
1622552150755,-0.4058171808719635,9.428366661071777,
1622552150775,0.023942016065120697,,0.11851298063993454
1622552150776,,10.164583206176758,
1622552150794,,,0.8439561128616333
1622552150795,0.43933600187301636,10.65898609161377,
1622552150817,,,1.4329297542572021
1622552150818,1.6340426206588745,10.824186325073242,
1622552150834,,,-0.2106897532939911
1622552150835,1.7477672100067139,11.908759117126465,
1622552150854,,,-0.507570743560791
1622552150855,0.019153613597154617,13.28183364868164,
1622552150874,,,-2.342726469039917
1622552150875,-0.9648633003234863,12.120646476745605,
1622552150895,,,-2.050633668899536
1622552150896,0.547075092792511,9.96945571899414,
1622552150917,,,-0.8475474119186401
1622552150918,2.3319525718688965,10.192116737365723,
1622552150935,1.2270283699035645,,-0.6308721303939819
1622552150936,,14.166491508483887,
1622552150954,,,3.936067581176758
1622552150955,1.4089876413345337,14.48851203918457,
1622552150974,,,2.583343744277954
1622552150975,-2.2697031497955322,14.510059356689453,
1622552150994,,,0.6943184733390808
1622552150995,-5.331887245178223,12.871228218078613,
1622552151015,-6.963535785675049,,1.5682021379470825
1622552151016,,13.150153160095215,
1622552151034,,,-3.797203779220581
1622552151035,-1.9093759059906006,13.358448028564453,
1622552151054,,,-3.9887399673461914
1622552151055,-0.42616790533065796,12.15177059173584,
1622552151074,,,-0.3926490843296051
1622552151075,-0.4704606235027313,11.692084312438965,
1622552151094,,,-0.08140286058187485
1622552151095,-1.659181833267212,9.648633003234863,
1622552151115,,,-0.33518823981285095
1622552151116,-1.9740192890167236,7.1239471435546875,
1622552151137,,,0.7769184708595276
1622552151138,-2.2218191623687744,,
1622552151139,,6.780379295349121,
1622552151155,,,1.745373010635376
1622552151156,-1.6759412288665771,5.969942092895508,
1622552151175,,,0.8655039072036743
1622552151176,-1.8698714971542358,5.082890033721924,
1622552151195,-1.778891921043396,3.908534288406372,-0.9062053561210632
1622552151215,,,-1.0319008827209473
1622552151216,-1.6196774244308472,3.3518824577331543,
1622552151235,-1.41257905960083,,-0.8451532125473022
1622552151236,,3.448847532272339,
1622552151258,-1.236605167388916,3.885789394378662,-1.7609353065490723
1622552151274,,,-2.9029695987701416
1622552151275,-1.338358759880066,5.279214859008789,
1622552151295,,,-3.7217864990234375
1622552151296,-1.2964602708816528,8.598775863647461,
1622552151314,,,-6.780379295349121
1622552151315,-0.667982280254364,13.242329597473145,
1622552151335,,,-12.56836223602295
1622552151336,0.32202014327049255,15.236700057983398,
1622552151354,,,-10.497377395629883
1622552151355,-0.750582218170166,12.567164421081543,
1622552151374,,,-2.8802247047424316
1622552151375,-0.6392518281936646,11.238382339477539,
1622552151394,,,-2.055422067642212
1622552151395,-1.2449848651885986,10.35252857208252,
1622552151414,,,-8.191761016845703
1622552151415,-0.03950432687997818,5.013458251953125,
1622552151434,,,-9.191340446472168
1622552151435,-1.258152961730957,4.7153801918029785,
1622552151454,,,-3.318363666534424
1622552151455,-4.3394904136657715,10.122684478759766,
1622552151475,-10.734403610229492,17.3974666595459,1.3898340463638306
1622552151495,-6.124367713928223,18.525135040283203,-7.387309551239014
1622552151514,,,1.482010841369629
1622552151515,3.3854012489318848,4.681861400604248,
1622552151534,,,3.9193081855773926
1622552151535,1.3970166444778442,1.744175910949707,
1622552151554,,,3.135207176208496
1622552151555,-0.8858546018600464,4.000710964202881,
1622552151577,,,4.818330764770508
1622552151578,-1.43532395362854,10.535684585571289,
1622552151595,,,-0.8104372620582581
1622552151596,0.0035913025494664907,19.93891143798828,
1622552151618,3.163937568664551,14.675259590148926,-1.5466543436050415
1622552151635,,,-1.7561469078063965
1622552151636,0.03950432687997818,9.299078941345215,
1622552151654,,,0.017956512048840523
1622552151655,-2.183511972427368,8.201337814331055,
1622552151677,,,0.9684545993804932
1622552151678,-1.780089020729065,7.3238630294799805,
1622552151697,,,0.6967126727104187
1622552151698,0.08738835901021957,5.938817501068115,
1622552151715,0.42018240690231323,8.085219383239746,-0.16879121959209442
1622552151734,,,-2.4025814533233643
1622552151735,1.0857704877853394,10.472238540649414,
1622552151754,,,-0.243011474609375
1622552151755,1.8626888990402222,9.980229377746582,
1622552151774,,,-1.0247182846069336
1622552151775,1.3838485479354858,8.851364135742188,
1622552151795,0.18914192914962769,8.893261909484863,-1.1875240802764893
1622552151814,,,-0.03950432687997818
1622552151815,0.015562310814857483,8.979453086853027,
1622552151838,-0.011971008032560349,9.117119789123535,0.015562310814857483
1622552151854,,,0.014365210197865963
1622552151855,-0.19033902883529663,9.770736694335938,
1622552151875,,,0.2585737705230713
1622552151876,0.08379705995321274,9.938331604003906,
1622552151895,,,0.7745242714881897
1622552151896,0.6536170840263367,10.425551414489746,
1622552151916,,,2.4444799423217773
1622552151917,1.8387469053268433,10.986991882324219,
1622552151934,,,0.6428431272506714
1622552151935,1.7489643096923828,12.769474983215332,
1622552151955,-0.24420857429504395,13.163320541381836,-1.3311761617660522
1622552151975,,,-0.9373299479484558
1622552151976,-0.11013327538967133,12.293028831481934,
1622552151994,,,1.5753847360610962
1622552151995,0.751779317855835,13.116634368896484,
1622552152014,,,1.094150185585022
1622552152015,1.0091559886932373,16.202760696411133,
1622552152037,,,0.7553706169128418
1622552152038,-1.4413094520568848,12.534843444824219,
1622552152055,,,0.014365210197865963
1622552152056,-3.7169981002807617,8.844181060791016,
1622552152078,-4.191050052642822,11.749545097351074,0.7326257228851318
1622552152095,-4.721365928649902,12.986149787902832,2.0865468978881836
1622552152115,-3.2776620388031006,12.49174690246582,-3.185485363006592
1622552152137,,,-2.9089550971984863
1622552152138,-1.171961784362793,12.354081153869629,
1622552152158,-1.1288660764694214,11.4263277053833,0.9397241473197937
1622552152175,-1.1085153818130493,,0.181959331035614
1622552152176,,10.432733535766602,
1622552152196,-1.721431016921997,,-1.3048399686813354
1622552152197,,8.798690795898438,
1622552152214,,,0.14484919607639313
1622552152215,-2.2864625453948975,7.829039573669434,
1622552152234,,,0.5566518902778625
1622552152235,-2.229001760482788,6.537367820739746,
1622552152255,,,0.6332663297653198
1622552152256,-1.7058687210083008,4.784811973571777,
1622552152275,,,-0.9145850539207458
1622552152276,-0.889445960521698,3.9624037742614746,
1622552152294,,,-0.8092401623725891
1622552152295,-1.2090718746185303,3.889380693435669,
1622552152314,,,-0.3292027413845062
1622552152315,-1.2533645629882812,3.9264907836914062,
1622552152334,,,-1.2090718746185303
1622552152335,-0.8978256583213806,4.36343240737915,
1622552152354,,,-3.181894063949585
1622552152355,-0.4381389021873474,5.2911858558654785,
1622552152374,,,-4.571728229522705
1622552152375,-0.09935937076807022,7.5668745040893555,
1622552152394,,,-6.050147533416748
1622552152395,-1.3778630495071411,10.844536781311035,
1622552152417,-0.11851298063993454,14.401123046875,-10.15141487121582
1622552152434,,,-7.681796073913574
1622552152435,-0.9481038451194763,14.087482452392578,
1622552152454,,,-4.657919406890869
1622552152455,-1.8387469053268433,12.030863761901855,
1622552152474,,,-6.503849029541016
1622552152475,-1.7896658182144165,8.904036521911621,
1622552152498,-1.291671872138977,5.310339450836182,-8.766369819641113
1622552152515,-2.1284453868865967,4.454412460327148,-7.843404769897461
1622552152538,-3.22139835357666,8.728062629699707,0.4189853072166443
1622552152620,,,2.715024709701538
1622552152621,0.28969839215278625,1.8519150018692017,
1622552152690,1.7046716213226318,18.782512664794922,-1.2485761642456055
1622552152758,-2.828749418258667,8.067262649536133,0.05267243832349777
1622552152823,1.534683346748352,,-0.5578489899635315
1622552152824,,10.08437728881836,
1622552152888,-0.37469255924224854,,-0.8056488633155823
1622552152889,,8.712499618530273,
1622552152958,0.043095629662275314,10.358513832092285,0.8475474119186401
1622552153021,1.335964560508728,,0.07302315533161163
1622552153022,,12.288240432739258,
1622552153089,1.3611036539077759,10.447098731994629,-0.36750996112823486
1622552153159,-3.9863457679748535,12.749124526977539,0.6117185354232788
1622552153221,-1.890222191810608,,-3.8307228088378906
1622552153222,,12.72757625579834,
1622552153293,-1.7729063034057617,8.681375503540039,-0.3902548849582672
1622552153356,-1.3634978532791138,,0.628477931022644
1622552153357,,5.4659624099731445,
1622552158089,,,-0.1364694982767105
1622552158090,-1.502361536026001,3.6140475273132324,-7.633912086486816
1622552158149,,,-0.8846575021743774
1622552158150,2.5282769203186035,11.487380027770996,
1622552158154,0.6572083830833435,1.7322049140930176,2.4133553504943848
1622552158173,,,2.0231003761291504
1622552158174,-2.494758129119873,1.1875240802764893,
1622552158194,-1.2461819648742676,3.135207176208496,4.092887878417969
1622552158216,,,5.984307289123535
1622552158217,-2.603694438934326,12.395978927612305,
1622552158235,1.193509578704834,19.925743103027344,-2.628833532333374
1622552158254,2.9903578758239746,15.078681945800781,-0.5398924946784973
1622552158274,0.6476315855979919,9.767146110534668,-1.5119383335113525
1622552158294,,,-0.07302315533161163
1622552158295,-1.823184609413147,8.287528991699219,
1622552158313,,,1.8543092012405396
1622552158314,-1.4460978507995605,6.567295074462891,
1622552158334,-0.6380547285079956,6.13753604888916,0.15322890877723694
1622552158354,-0.36152446269989014,9.569623947143555,-1.6148890256881714
1622552158374,0.3208230137825012,10.681731224060059,-0.8355764150619507
1622552158394,0.9959878921508789,9.396044731140137,-0.9457096457481384
1622552158414,0.812831461429596,8.759186744689941,-0.811634361743927
1622552158434,0.5039794445037842,8.888473510742188,-0.35913026332855225
1622552158454,0.7003039717674255,8.860940933227539,0.11133038252592087
1622552158475,,,0.6248866319656372
1622552158476,0.36750996112823486,9.180566787719727,
1622552158494,0.17238251864910126,9.946710586547852,0.7038952708244324
1622552158514,-0.3256114423274994,10.090363502502441,0.11013327538967133
1622552158534,-0.11372458189725876,,1.5203180313110352
1622552158535,,10.046070098876953,
1622552158554,1.2198457717895508,10.461463928222656,2.7257986068725586
1622552158574,1.2449848651885986,11.99255657196045,1.5478514432907104
1622552158594,-0.2885012924671173,12.771868705749512,-1.4089876413345337
1622552158615,,,-0.7721300721168518
1622552158616,0.6416460275650024,11.186907768249512,
1622552158635,1.170764684677124,13.408726692199707,1.4748282432556152
1622552158658,,,1.2449848651885986
1622552158659,1.7860745191574097,15.717934608459473,
1622552158675,,,1.6280571222305298
1622552158676,-0.7541735172271729,14.215572357177734,
1622552158695,-3.1890766620635986,,0.020350715145468712
1622552158696,,8.972270965576172,
1622552158715,-5.206191539764404,10.467450141906738,-0.12689268589019775
1622552158735,-2.6132712364196777,,2.606088638305664
1622552158736,,13.15853214263916,
1622552158755,,,-0.5674257874488831
1622552158756,-3.485957622528076,13.210007667541504,
1622552158775,-1.6364368200302124,,-4.194641590118408
1622552158776,,12.539631843566895,
1622552158796,,,-1.7597382068634033
1622552158797,-1.6867151260375977,12.291831970214844,
1622552158816,-1.7860745191574097,11.718420028686523,1.8495208024978638
1622552158835,-1.278503656387329,9.841365814208984,-0.28131869435310364
1622552158855,,,-0.586579442024231
1622552158875,-1.8291701078414917,7.4136457443237305,-0.243011474609375
1622552158896,-2.2433669567108154,,0.8439561128616333
1622552158897,,6.311115741729736,
1622552158915,-1.2294225692749023,,-0.32441434264183044
1622552158916,,4.071340084075928,
1622552158935,-1.0785878896713257,,-1.4329297542572021
1622552158936,,3.863044500350952,
1622552158956,-1.2401964664459229,3.8786067962646484,-0.47165772318840027
1622552158974,,,-0.18914192914962769
1622552158975,-1.3012486696243286,3.754108190536499,
1622552158995,,,-1.235408067703247
1622552158996,-1.1516109704971313,3.666719913482666,
1622552159015,-1.6112977266311646,4.413711071014404,-3.5446155071258545
1622552159034,,,-4.660313606262207
1622552159035,-1.5538369417190552,7.344213485717773,
1622552159054,,,-7.82305383682251
1622552159055,-1.7310078144073486,12.267889976501465,
1622552159074,,,-12.006921768188477
1622552159075,-0.7050924301147461,15.737088203430176,
1622552159094,,,-8.299500465393066
1622552159095,-0.3579331636428833,13.893552780151367,
1622552159114,,,-2.589329242706299
1622552159115,-1.2246341705322266,12.176909446716309,
1622552159134,,,-2.433706045150757
1622552159135,-1.8088194131851196,10.3549222946167,
1622552159154,,,-6.919242858886719
1622552159155,-1.1563993692398071,6.502651691436768,
1622552159174,-1.8255788087844849,,-9.220070838928223
1622552159175,,4.89494514465332,
1622552159194,,,-2.8383262157440186
1622552159195,-3.737348794937134,9.515754699707031,
1622552159214,,,0.8343793153762817
1622552159215,-9.090784072875977,14.91946792602539,
1622552159234,0.48243165016174316,12.630611419677734,-4.793191909790039
1622552159255,0.9576807022094727,4.10366153717041,2.079364061355591
1622552159274,,,3.089717388153076
1622552159275,-1.5873557329177856,2.8203697204589844,
1622552159294,,,4.444835662841797
1622552159295,-0.9229647517204285,5.000290393829346,
1622552159314,,,4.811148166656494
1622552159315,-0.6404489278793335,12.826935768127441,
1622552159334,,,-0.24660277366638184
1622552159335,3.5936968326568604,18.993202209472656,
1622552159355,2.760514497756958,12.343306541442871,-2.0602104663848877
1622552159375,-0.569819986820221,8.5101900100708,-1.6747441291809082
1622552159395,-2.8850131034851074,,-0.2717418968677521
1622552159396,,8.71609115600586,
1622552159415,-2.4803929328918457,7.929595947265625,-0.27653029561042786
1622552159436,,,-0.090979665517807
1622552159437,-0.3280056416988373,,
1622552159438,,6.763619899749756,
1622552159455,0.4668693244457245,7.9643120765686035,0.4967968463897705
1622552159474,,,-0.7158663272857666
1622552159475,0.8858546018600464,10.02811336517334,
1622552159495,,,-1.6879122257232666
1622552159496,0.6021417379379272,10.632649421691895,
1622552159515,0.34356793761253357,9.521739959716797,-0.4357447028160095
1622552159537,,,0.009576806798577309
1622552159538,-0.2801215946674347,8.579621315002441,
1622552159555,-0.7817068696022034,,-0.44532153010368347
1622552159556,,8.620323181152344,
1622552159575,-0.0347159244120121,,0.8451532125473022
1622552159576,,9.034520149230957,
1622552159595,-0.3411737382411957,9.396044731140137,-0.2082955539226532
1622552159616,-1.0187327861785889,10.24119758605957,0.29209262132644653
1622552159636,-0.3016694188117981,10.280701637268066,0.8439561128616333
1622552159656,,,1.047463297843933
1622552159657,-0.6835445761680603,9.604340553283691,
1622552159676,0.41778820753097534,10.176554679870605,1.3862427473068237
1622552159695,1.0570400953292847,11.373655319213867,1.0797849893569946
1622552159716,0.3208230137825012,11.998541831970215,-0.07661445438861847
1622552159735,,,-0.8631097078323364
1622552159736,-0.970848798751831,12.143390655517578,
1622552159755,-0.7637503147125244,,-1.1216834783554077
1622552159756,,10.402806282043457,
1622552159775,,,-0.24660277366638184
1622552159776,1.1659762859344482,10.621875762939453,
1622552159795,0.3315969407558441,,0.5973533391952515
1622552159796,,13.563152313232422,
1622552159815,,,1.9764134883880615
1622552159816,-0.10295066982507706,14.40231990814209,
1622552159836,-3.647566318511963,,0.7445967197418213
1622552159837,,11.419144630432129,
1622552159854,,,-0.2968810200691223
1622552159855,-3.81994891166687,11.852495193481445,
1622552159876,,,3.3686418533325195
1622552159877,-3.774458885192871,12.431892395019531,
1622552159896,-1.0749965906143188,11.525687217712402,-0.8798691034317017
1622552159914,,,-5.152322292327881
1622552159915,-0.9995791912078857,11.91354751586914,
1622552159937,,,-0.9720458984375
1622552159938,-1.1540051698684692,11.710040092468262,
1622552159955,-2.6431987285614014,11.018115997314453,0.7469909191131592
1622552159975,,,-0.14484919607639313
1622552159976,-3.1938650608062744,9.009381294250488,
1622552159994,-3.3482911586761475,7.5417351722717285,-0.5937620401382446
1622552160014,-2.8993782997131348,6.903680801391602,-0.047884032130241394
1622552160034,-1.5861586332321167,5.578489780426025,1.358709454536438
1622552160054,,,0.24779987335205078
1622552160055,-1.5945383310317993,5.122394561767578,
1622552160075,-1.400607943534851,5.343858242034912,-0.8391677141189575
1622552160095,-1.578976035118103,,-0.02274491637945175
1622552160096,,5.51504373550415,
1622552160116,-1.3180080652236938,,-1.5837644338607788
1622552160117,,4.1192240715026855,
1622552160136,-1.3060370683670044,5.129577159881592,-2.1559786796569824
1622552160156,-2.0913352966308594,7.682993412017822,-2.736572504043579
1622552160176,-1.5837644338607788,10.213664054870605,-4.899733543395996
1622552160195,-0.585382342338562,11.202469825744629,-6.574477672576904
1622552160215,0.5410895943641663,,-6.452373504638672
1622552160216,,10.890026092529297,
1622552160235,-0.32202014327049255,,-4.744110584259033
1622552160236,,11.464634895324707,
1622552160259,-0.25498247146606445,11.954249382019043,-3.793612480163574
1622552160275,,,-4.225766181945801
1622552160276,-2.519897222518921,13.085509300231934,
1622552160295,-1.2066776752471924,10.2962646484375,-6.7061591148376465
1622552160314,,,-7.879317760467529
1622552160315,1.0271124839782715,5.4659624099731445,
1622552160336,,,-4.529829502105713
1622552160337,0.8427590131759644,4.964377403259277,
1622552160355,-2.454056739807129,8.497021675109863,-6.171054840087891
1622552160375,-3.1866824626922607,14.633360862731934,-3.3686418533325195
1622552160395,-4.590881824493408,16.711528778076172,0.12210428714752197
1622552160415,,,-2.1547815799713135
1622552160416,0.7733271718025208,9.41639518737793,
1622552160438,0.768538773059845,,1.3611036539077759
1622552160439,,3.446453332901001,
1622552160455,-0.2214636504650116,,1.7262194156646729
1622552160456,,5.418078422546387,
1622552160476,-0.8008604645729065,,2.473210334777832
1622552160477,,5.694608688354492,
1622552160495,-1.4496891498565674,,3.309983968734741
1622552160496,,10.134655952453613,
1622552160515,,,2.919728994369507
1622552160516,-1.6867151260375977,14.781801223754883,
1622552160535,2.955641984939575,12.654553413391113,-2.1140801906585693
1622552160555,-0.3256114423274994,10.54645824432373,0.3974374830722809
1622552160577,-1.3108254671096802,,0.6931213736534119
1622552160578,,9.762357711791992,
1622552160595,,,0.5650315880775452
1622552160596,-2.299630641937256,9.682151794433594,
1622552160615,-2.2409727573394775,,0.4213795065879822
1622552160616,,9.891644477844238,
1622552160635,-1.0869675874710083,9.094375610351562,0.8750807046890259
1622552160656,,,0.9744400978088379
1622552160657,-1.2665326595306396,9.261969566345215,
1622552160675,0.3794809579849243,,0.5386953949928284
1622552160676,,8.912415504455566,
1622552160695,0.6727706789970398,9.412803649902344,0.5758054852485657
1622552160716,0.5722141861915588,10.097545623779297,1.0618284940719604
1622552160735,,,-1.1468225717544556
1622552160736,0.2585737705230713,11.004947662353516,
1622552160755,1.1288660764694214,,0.50876784324646
1622552160756,,10.927136421203613,
1622552160776,,,-1.0055646896362305
1622552160777,-0.9038111567497253,10.87326717376709,
1622552160795,1.0893617868423462,10.291476249694824,1.159990668296814
1622552160815,,,1.5310919284820557
1622552160816,-0.11133038252592087,10.383652687072754,
1622552160835,-1.0965443849563599,10.034099578857422,0.7469909191131592
1622552160854,,,1.5897499322891235
1622552160855,-0.08738835901021957,10.290278434753418,
1622552160876,-0.4704606235027313,,1.946485996246338
1622552160877,,10.593145370483398,
1622552160896,-1.0091559886932373,10.269927978515625,4.1395745277404785
1622552160915,-0.2861070930957794,10.87566089630127,2.234987258911133
1622552160935,1.0283095836639404,,1.3227964639663696
1622552160936,,12.526463508605957,
1622552160955,,,0.9169792532920837
1622552160956,0.6248866319656372,11.976993560791016,
1622552160974,,,0.6943184733390808
1622552160975,-0.6943184733390808,9.027337074279785,
1622552160995,-0.6727706789970398,8.769960403442383,3.5853171348571777
1622552161017,-0.18076223134994507,11.226411819458008,2.1739351749420166
1622552161036,-0.4752490520477295,14.429853439331055,0.5207388401031494
1622552161056,2.1332337856292725,,0.6524199843406677
1622552161057,,17.35197639465332,
1622552161076,1.5286977291107178,12.970587730407715,2.541445016860962
1622552161095,1.4616601467132568,,3.552995204925537
1622552161096,,12.264298439025879,
1622552161115,,,2.5486276149749756
1622552161116,1.5873557329177856,10.645817756652832,
1622552161135,0.6332663297653198,11.807005882263184,2.8598740100860596
1622552161155,-0.12210428714752197,10.934319496154785,0.22744916379451752
1622552161176,,,0.42616790533065796
1622552161177,0.6751648783683777,11.172542572021484,
1622552161195,-0.10654197633266449,9.01895809173584,-0.05506663769483566
1622552161216,-1.655590534210205,,-0.3794809579849243
1622552161217,,10.202890396118164,
1622552161235,0.8631097078323364,11.96981143951416,-0.3734954595565796
1622552161256,1.016338586807251,8.687360763549805,-0.20111294090747833
1622552161276,,,1.436521053314209
1622552161277,0.7433996200561523,7.836222171783447,
1622552161295,0.46567222476005554,7.374141216278076,2.874239206314087
1622552161317,,,2.734178304672241
1622552161318,0.24420857429504395,8.638279914855957,
1622552161337,,,-4.941632270812988
1622552161338,0.3363853394985199,9.455899238586426,
1622552161355,1.0019733905792236,,-1.9524714946746826
1622552161356,,9.707290649414062,
1622552161376,,,0.20470423996448517
1622552161377,0.023942016065120697,7.887697696685791,
1622552161396,-0.9193734526634216,,2.734178304672241
1622552161397,,7.15507173538208,
1622552161414,,,5.015852451324463
1622552161415,-0.8451532125473022,7.51659631729126,
1622552161435,0.35075053572654724,,5.828683853149414
1622552161436,,8.073247909545898,
1622552161455,0.39145198464393616,,3.2417490482330322
1622552161456,,8.979453086853027,
1622552161476,-0.06823474913835526,8.53652572631836,2.942473888397217
1622552161497,,,5.234921932220459
1622552161498,-0.4345476031303406,7.310694694519043,
1622552161515,,,5.215768337249756
1622552161516,-1.0043675899505615,7.042544364929199,
1622552161535,-1.7094600200653076,7.068880558013916,6.214150428771973
1622552161621,-0.8559271097183228,7.103596210479736,5.0290207862854
1622552161687,,,4.817133903503418
1622552161688,-1.3970166444778442,5.647922039031982,
1622552161754,1.2018892765045166,4.260481834411621,9.65222454071045
1622552161820,,,8.242039680480957
1622552161821,1.5286977291107178,2.7533318996429443,
1622552161887,2.650381326675415,3.2992098331451416,9.114726066589355
1622552161954,-0.10773907601833344,2.8167781829833984,8.74960994720459
1622552162021,4.352658748626709,-0.07900865375995636,9.059659004211426
1622552162087,3.8774096965789795,-0.25498247146606445,4.480748653411865
1622552162154,5.918466567993164,-4.28322696685791,7.115567684173584
1622552162220,-2.1954829692840576,-5.732915878295898,13.94742202758789
1622552162287,4.1862616539001465,-4.899733543395996,8.414422035217285
1622552162354,2.962824583053589,-5.099649429321289,7.934384346008301
1622552162420,,,7.953537940979004
1622552162421,1.745373010635376,-3.7672762870788574,
1622552162487,3.8091750144958496,,8.14028549194336
1622552162488,,-5.614402770996094,
1622552162556,2.3343467712402344,,9.560047149658203
1622552162557,,-6.4380083084106445,
1622552162623,,,7.184999465942383
1622552162624,2.4169466495513916,-5.831078052520752,
1622552162688,1.315613865852356,,7.644686222076416
1622552162689,,-5.474342346191406,
1622552162755,1.237802267074585,-5.66228723526001,7.396886348724365
1622552162824,3.5913026332855225,,7.712920665740967
1622552162825,,-4.301183223724365,
1622552162892,,,7.886500358581543
1622552162893,2.5713725090026855,-4.373009204864502,
1622552162960,2.741360902786255,-3.272873640060425,6.356605529785156
1622552163022,,,8.129511833190918
1622552163023,4.440047264099121,-4.732139587402344,
1622552163089,,,8.42040729522705
1622552163090,4.145560264587402,-4.60165548324585,
1622552163154,,,7.454347133636475
1622552163155,7.052121162414551,-2.2900538444519043,
1622552163225,,,7.667430877685547
1622552163226,5.9771246910095215,-1.4760253429412842,
1622552163292,7.657854080200195,,7.202955722808838
1622552163293,,0.6799532771110535,
1622552163358,6.877344608306885,,5.625176906585693
1622552163359,,-0.11372458189725876,
1622552163422,4.394556999206543,2.604891538619995,9.53969669342041
1622552163487,9.214085578918457,1.9357120990753174,5.193023681640625
1622552163554,5.828683853149414,1.6603789329528809,6.888118267059326
1622552163620,,,4.062960147857666
1622552163621,-2.653972625732422,1.7369933128356934,
1622552163687,-4.32871675491333,,9.397241592407227
1622552163693,,5.861005783081055,
1622552163754,-3.4117374420166016,,6.215347766876221
1622552163820,,,7.8278422355651855
1622552163821,0.8236053586006165,2.919728994369507,
1622552163887,-4.611232280731201,2.187103271484375,10.644620895385742
1622552163954,-2.123656988143921,1.1899182796478271,12.67250919342041
1622552164021,-0.6212953329086304,2.2457611560821533,8.08282470703125
1622552164087,-1.258152961730957,2.2242133617401123,13.728352546691895
1622552164154,,,5.142745018005371
1622552164155,-1.1312602758407593,2.29484224319458,
1622552164221,-2.603694438934326,,12.246341705322266
1622552164222,,2.7545289993286133,
1622552164289,-3.19865345954895,3.732560396194458,9.332598686218262
1622552164353,,,9.338583946228027
1622552164354,0.16160862147808075,0.8547300100326538,
1622552164421,-0.6033388376235962,0.9217676520347595,7.805097579956055
1622552164488,-0.8858546018600464,,13.1908540725708
1622552164489,,0.6943184733390808,
1622552164553,,,10.044873237609863
1622552164554,0.2082955539226532,0.99479079246521,
1622552164620,,,8.244433403015137
1622552164621,0.4967968463897705,2.1152772903442383,
1622552164687,0.727837324142456,1.4867992401123047,9.568427085876465
1622552164754,1.091755986213684,1.6101006269454956,9.922768592834473
1622552164820,1.4867992401123047,1.601720929145813,9.728838920593262
1622552164887,,,9.696516990661621
1622552164888,0.8224082589149475,1.7932571172714233,
1622552164954,1.8531121015548706,1.5263035297393799,8.886079788208008
1622552165021,1.8375498056411743,1.5741876363754272,9.751583099365234
1622552165087,1.6041151285171509,1.8626888990402222,7.586028099060059
1622552165153,,,10.666168212890625
1622552165154,0.7577648162841797,1.780089020729065,
1622552165220,0.45489832758903503,2.1487960815429688,8.935160636901855
1622552165287,0.9864110946655273,1.7501614093780518,11.294646263122559
1622552165354,0.8451532125473022,1.8291701078414917,9.040505409240723
1622552165420,0.8379706144332886,,9.436745643615723
1622552165421,,1.9297266006469727,
1622552165487,0.750582218170166,2.1092917919158936,8.972270965576172
1622552165554,0.5363011956214905,2.098517894744873,9.872490882873535
1622552165620,0.6105214357376099,2.2601263523101807,9.096769332885742
1622552165687,0.40222588181495667,2.145204782485962,9.740809440612793
1622552165753,,,9.78989028930664
1622552165754,0.16998831927776337,2.0673930644989014,
1622552165820,,,9.192537307739258
1622552165821,-0.20231004059314728,2.208651065826416,
1622552165898,-0.47405192255973816,2.3295583724975586,9.39365005493164
1622552166108,-0.5841852426528931,2.31758713722229,9.561244010925293
1622552166422,,,9.35893440246582
1622552166423,-0.8355764150619507,2.3511061668395996,9.498994827270508
1622552166492,-1.1899182796478271,2.58813214302063,9.26675796508789
1622552166554,-0.7601590156555176,2.2469582557678223,9.59476375579834
1622552166636,,,9.601945877075195
1622552166637,-1.1085153818130493,2.412158250808716,
1622552166696,-1.217451572418213,2.5905263423919678,8.452729225158691
1622552166756,-1.07379949092865,2.3331496715545654,9.975440979003906
1622552166820,,,9.59715747833252
1622552166821,-0.8379706144332886,2.404975652694702,
1622552166893,,,9.26675796508789
1622552166894,-1.37906014919281,2.7988216876983643,
1622552166985,-1.5275006294250488,3.0597896575927734,9.81143856048584
1622552167046,,,8.707711219787598
1622552167047,-0.33039984107017517,2.2613234519958496,
1622552167105,-0.9852139949798584,2.2230162620544434,9.475052833557129
1622552167158,-1.1982979774475098,2.589329242706299,8.999804496765137
1622552167237,-0.8643068075180054,2.340332269668579,9.816226959228516
1622552167288,-1.4951789379119873,2.5007436275482178,9.028534889221191
1622552167356,-0.6727706789970398,2.212242364883423,8.742427825927734
