timestamp,AccX,AccY,AccZ
1622551707137,-2.8790276050567627,3.3028011322021484,7.924807548522949
1622551707207,-1.8830395936965942,,
1622551707208,,3.0885202884674072,7.745242595672607
1622551707261,-5.634753704071045,3.5673606395721436,9.519346237182617
1622551707327,-4.0078935623168945,2.1715409755706787,7.645883083343506
1622551707394,-5.055356979370117,2.985569477081299,7.044938564300537
1622551707460,-2.9508535861968994,,8.803479194641113
1622551707461,,2.8455088138580322,
1622551707527,-4.4639892578125,3.137601375579834,8.556877136230469
1622551707594,-3.535038709640503,4.490325450897217,6.111199855804443
1622551707666,-4.028244495391846,3.068169593811035,8.38688850402832
1622551707735,-5.196614742279053,3.6296098232269287,7.975085735321045
1622551707806,-4.9152960777282715,2.8419175148010254,8.688557624816895
1622551707862,-5.336675643920898,2.477998733520508,7.402871608734131
1622551707930,-5.510255336761475,1.8962076902389526,9.070432662963867
1622551708001,-3.1316158771514893,0.6991068720817566,5.390544891357422
1622551708065,-8.482656478881836,-1.294066071510315,4.702212333679199
1622551708137,-7.5848307609558105,-0.16759411990642548,3.400963544845581
1622551708195,-11.042057991027832,,
1622551708196,,0.6153098344802856,-2.898181200027466
1622551708276,-15.209166526794434,-1.169567584991455,-0.06344634294509888
1622551708328,-15.137340545654297,,
1622551708329,,0.3256114423274994,-3.9264907836914062
1622551708415,-12.634202003479004,,
1622551708416,,-0.4800374507904053,-5.78678560256958
1622551708463,-9.514557838439941,-1.599326729774475,-0.3076549172401428
1622551708528,-5.118803024291992,-3.397372245788574,4.060565948486328
1622551708600,-7.224503517150879,-2.5019407272338867,-1.8279730081558228
1622551708665,-5.991489887237549,,
1622551708666,,-3.163937568664551,-0.6009446382522583
1622551708891,-13.040019989013672,,3.8534677028656006
1622551708892,,-2.606088638305664,1.6855180263519287
1622551708928,-0.6967126727104187,-8.777143478393555,0.04429273307323456
1622551708995,-1.4724340438842773,-9.704896926879883,-1.45806884765625
1622551709060,-3.824737310409546,,
1622551709061,,-8.376114845275879,-0.42018240690231323
1622551709127,-2.341529369354248,-10.876858711242676,-1.456871747970581
1622551709194,-5.172672748565674,-7.4555439949035645,-0.22625206410884857
1622551709261,-6.45357084274292,-6.349422931671143,-0.9169792532920837
1622551709328,0.973242998123169,-10.323798179626465,-1.2030863761901855
1622551709394,-4.594472885131836,-12.021286964416504,0.33518823981285095
1622551709461,-3.33392596244812,-8.109161376953125,0.14604631066322327
1622551709528,-3.049015760421753,-7.319074630737305,0.22505496442317963
1622551709594,-2.741360902786255,,0.2406172752380371
1622551709595,,-8.62271785736084,
1622551709660,-2.98437237739563,,
1622551709661,,-11.137825965881348,0.1628057211637497
1622551709727,-2.673126220703125,-10.626664161682129,0.7924807667732239
1622551709794,-2.3355438709259033,-10.688913345336914,-0.1041477769613266
1622551709860,-2.0207061767578125,,
1622551709861,,-9.837775230407715,0.39384618401527405
1622551709927,-1.459265947341919,-9.53969669342041,0.6524199843406677
1622551709994,-1.7705121040344238,-9.315838813781738,0.8571242094039917
1622551710060,-1.722628116607666,,
1622551710061,,-9.50498104095459,0.1041477769613266
1622551710127,-0.16160862147808075,,
1622551710128,,-11.273098945617676,-0.25498247146606445
1622551710194,-2.12485408782959,-16.299724578857422,-1.1025298833847046
1622551710261,2.8215668201446533,-12.30978775024414,2.0661959648132324
1622551710328,3.0992941856384277,,-0.6320692300796509
1622551710329,,-10.228029251098633,
1622551710395,2.4648306369781494,-9.094375610351562,-0.689530074596405
1622551710465,3.1866824626922607,,-1.3838485479354858
1622551710466,,-8.282740592956543,
1622551710532,2.7700912952423096,-6.722918510437012,-1.6424223184585571
1622551710595,0.788889467716217,,
1622551710596,,-7.238868713378906,-2.956839084625244
1622551710663,-0.5722141861915588,,-9.05487060546875
1622551710664,,-11.839327812194824,
1622551710731,2.3367409706115723,,
1622551710732,,-8.74960994720459,-3.4847605228424072
1622551710798,7.487865924835205,,3.9624037742614746
1622551710799,,-10.442310333251953,
1622551710863,-0.7733271718025208,-4.921281814575195,6.202179431915283
1622551710931,-4.211400985717773,,
1622551710932,,-14.477737426757812,4.371812343597412
1622551710995,2.9759926795959473,,
1622551710996,,-8.846575736999512,0.05985504388809204
1622551711060,-0.019153613597154617,,
1622551711061,,-10.119093894958496,-1.0007762908935547
1622551711130,0.9852139949798584,-9.240421295166016,-1.37906014919281
1622551711195,0.10893617570400238,,
1622551711196,,-9.568427085876465,-0.2693476974964142
1622551711265,0.033518824726343155,-10.649409294128418,0.13527239859104156
1622551711329,-2.276885747909546,,
1622551711330,,-12.065579414367676,-1.3048399686813354
1622551711396,-2.2852654457092285,,
1622551711397,,-15.33845329284668,-4.195838451385498
1622551711465,6.257246017456055,,3.1962592601776123
1622551711466,,-13.109451293945312,
1622551711532,-0.017956512048840523,,
1622551711533,,-12.180500984191895,-0.06344634294509888
1622551711596,1.3419500589370728,-8.26119327545166,1.035492181777954
1622551711665,0.6739677786827087,,1.9907786846160889
1622551711666,,-4.627991676330566,
1622551711732,3.114856481552124,,
1622551711733,,-4.035427093505859,0.3016694188117981
1622551711799,0.7565677165985107,-12.49055004119873,-8.763975143432617
1622551711863,0.6584054827690125,-13.432668685913086,-8.172607421875
1622551711929,3.40216064453125,,-6.6163763999938965
1622551711930,,-4.175487995147705,
1622551711994,2.6659436225891113,-15.64371395111084,-11.207258224487305
1622551712065,0.871489405632019,,
1622551712066,,-8.571242332458496,3.6140475273132324
1622551712131,0.06703764945268631,,
1622551712132,,-9.825803756713867,-2.031480073928833
1622551712196,2.38462495803833,-7.988254070281982,-0.5027823448181152
1622551712265,-0.706289529800415,,
1622551712266,,-9.931148529052734,-2.122459888458252
1622551712332,1.3862427473068237,-9.001001358032227,0.7410054206848145
1622551712395,0.10654197633266449,,
1622551712396,,-11.118672370910645,-0.31603461503982544
1622551712465,-1.5095441341400146,-11.908759117126465,-1.3239935636520386
1622551712531,0.27413609623908997,,
1622551712532,,-9.557653427124023,-7.322665691375732
1622551712595,-3.5194764137268066,,
1622551712596,,-18.405426025390625,1.965639591217041
1622551712662,0.6643909811973572,,
1622551712663,,-12.375628471374512,-2.449268341064453
1622551712731,2.1487960815429688,,
1622551712732,,-7.903259754180908,2.516305923461914
1622551712796,-0.4668693244457245,-6.4595561027526855,1.5155296325683594
1622551712863,3.621230125427246,-4.412513732910156,1.3419500589370728
1622551712928,1.5670050382614136,,-10.260351181030273
1622551712929,,-9.459490776062012,
1622551713071,-0.35075053572654724,-12.972981452941895,-8.552088737487793
1622551713072,7.390900611877441,,
1622551713073,,-19.080591201782227,-5.099649429321289
1622551713128,9.227252960205078,,
1622551713129,,-1.4185645580291748,-0.3148375153541565
1622551713195,-7.6746134757995605,-18.302474975585938,1.6699557304382324
1622551713266,2.47560453414917,-8.31985092163086,-0.27054479718208313
1622551713332,0.49559974670410156,,
1622551713333,,-9.587580680847168,-2.03507137298584
1622551713396,0.21308395266532898,-8.69334602355957,-2.182314872741699
1622551713461,0.40462008118629456,,
1622551713462,,-9.410409927368164,-0.7122750282287598
1622551713528,-0.5351040959358215,-10.399214744567871,0.019153613597154617
1622551713599,2.182314872741699,-11.963826179504395,-5.718550682067871
1622551713661,-0.9588778018951416,-13.828908920288086,-7.190984725952148
1622551713729,9.503783226013184,-14.228740692138672,0.015562310814857483
1622551713795,-0.47644615173339844,,
1622551713796,,,1.1025298833847046
1622551713797,,-11.05642318725586,
1622551713865,1.0402805805206299,,0.7625532150268555
1622551713866,,-6.764816761016846,
1622551713932,2.0446481704711914,,
1622551713933,,-3.2609026432037354,3.0873231887817383
1622551713995,3.3423056602478027,,-3.3877954483032227
1622551713996,,-6.97430944442749,
1622551714062,1.0642226934432983,-12.81855583190918,-11.408370971679688
1622551714127,1.9405004978179932,,
1622551714128,,-6.278793811798096,-1.5969325304031372
1622551717082,-0.3878606855869293,-12.841300964355469,-1.601720929145813
1622551717135,1.01753568649292,,
1622551717136,,-8.501810073852539,2.2697031497955322
1622551717202,1.8830395936965942,-4.371812343597412,2.0147206783294678
1622551717220,1.9632453918457031,-3.535038709640503,3.159149169921875
1622551717240,2.6647465229034424,,2.890998601913452
1622551717241,,-2.9316999912261963,
1622551717260,3.021482467651367,,
1622551717261,,-2.7712883949279785,2.1284453868865967
1622551717280,3.02986216545105,,0.28730419278144836
1622551717281,,-3.384204149246216,
1622551717303,3.2333693504333496,-5.966350555419922,-3.8558619022369385
1622551717320,1.7322049140930176,,
1622551717321,,-9.660603523254395,-8.220491409301758
1622551717340,0.15322890877723694,,
1622551717341,,-13.691242218017578,-13.704410552978516
1622551717360,1.2485761642456055,,-10.94030475616455
1622551717361,,-13.746309280395508,
1622551717380,0.1951274424791336,,-8.674192428588867
1622551717381,,-11.848904609680176,
1622551717401,0.7924807667732239,-11.838129997253418,-8.064867973327637
1622551717420,1.6723499298095703,,-6.166266441345215
1622551717421,,-10.317811965942383,
1622551717440,3.069366693496704,,-8.44315242767334
1622551717441,,-7.571662902832031,
1622551717461,6.698976516723633,-12.145785331726074,-1.5107412338256836
1622551717481,6.84981107711792,,4.69024133682251
1622551717482,,-14.449007034301758,
1622551717500,4.765658378601074,,-2.7940332889556885
1622551717501,,-14.31014347076416,
1622551717521,2.608482837677002,,
1622551717522,,-6.072892665863037,-0.9576807022094727
1622551717540,6.039373874664307,,
1622551717541,,-2.673126220703125,5.999869346618652
1622551717562,4.460397720336914,-5.013458251953125,7.603984832763672
1622551717581,-1.091755986213684,,4.531026840209961
1622551717582,,-11.677719116210938,
1622551717600,-8.579621315002441,,
1622551717601,,-18.30127716064453,3.5182793140411377
1622551717621,-8.091204643249512,-15.977705001831055,-0.15801730751991272
1622551717641,-2.583343744277954,-10.788272857666016,-2.0195090770721436
1622551717660,2.428917646408081,-9.065644264221191,-2.58813214302063
1622551717680,4.534617900848389,-8.391676902770996,-2.340332269668579
1622551717700,3.490746021270752,-7.491456985473633,0.07900865375995636
1622551717720,1.8507179021835327,-7.314286231994629,0.10295066982507706
1622551717740,0.010773907415568829,-8.47906494140625,-1.8722656965255737
1622551717761,-1.0259153842926025,-10.162189483642578,-2.1559786796569824
1622551717780,-0.1711854189634323,-9.288305282592773,-3.117250680923462
1622551717800,0.7529764175415039,,
1622551717801,,-9.05606746673584,-1.8626888990402222
1622551717820,1.1743559837341309,-9.657012939453125,-0.07781155407428741
1622551717840,0.6787561774253845,,
1622551717841,,-9.515754699707031,1.115697979927063
1622551717860,-0.18315643072128296,,1.2282254695892334
1622551717861,,-9.734824180603027,
1622551717880,-0.019153613597154617,,-0.12689268589019775
1622551717881,,-10.407594680786133,
1622551717900,1.1192892789840698,-11.334151268005371,-1.07379949092865
1622551717920,0.13407529890537262,,-0.09457096457481384
1622551717921,,-11.313799858093262,
1622551717940,-2.6360161304473877,,
1622551717941,,-11.712434768676758,-0.5291185975074768
1622551717961,-3.5051112174987793,-12.0823392868042,-1.094150185585022
1622551717980,-0.08259996026754379,,
1622551717981,,-12.237961769104004,-2.9987375736236572
1622551718000,1.6160861253738403,-11.39520263671875,-3.512293815612793
1622551718020,0.25737667083740234,,
1622551718021,,-10.733205795288086,-5.064933776855469
1622551718040,-3.0861260890960693,,
1622551718041,,-14.757859230041504,-4.14915132522583
1622551718061,-2.316390037536621,-14.443021774291992,-4.590881824493408
1622551718080,2.182314872741699,,0.19871874153614044
1622551718081,,-14.70638370513916,
1622551718100,7.710526466369629,,
1622551718101,,-14.736311912536621,4.36343240737915
1622551718120,9.59596061706543,,
1622551718121,,-15.661670684814453,1.1013327836990356
1622551718140,4.277241230010986,,
1622551718141,,-14.165294647216797,-2.5306711196899414
1622551718160,-1.1432312726974487,,-0.7242460250854492
1622551718161,,-12.140996932983398,
1622551718183,-0.9612720012664795,-11.955446243286133,0.09576806426048279
1622551718202,0.45010992884635925,,
1622551718203,,-10.94150161743164,2.5917234420776367
1622551718220,1.533486247062683,-8.71369743347168,3.050212860107422
1622551718243,1.0426748991012573,-7.515398979187012,2.1775264739990234
1622551718260,1.5286977291107178,,
1622551718261,,-6.890512466430664,0.5482721924781799
1622551718280,0.6919242739677429,-5.767632007598877,1.2461819648742676
1622551718302,1.768117904663086,-4.6291890144348145,2.721010208129883
1622551718320,1.8100165128707886,,
1622551718321,,-3.728969097137451,3.1651346683502197
1622551718340,2.89339280128479,,
1622551718341,,-3.4308910369873047,2.7557260990142822
1622551718364,3.2417490482330322,-3.4835634231567383,1.4903905391693115
1622551718381,2.756923198699951,,-0.1759738177061081
1622551718382,,-4.574122428894043,
1622551718403,2.1128830909729004,,
1622551718404,,-7.150283336639404,-4.747702121734619
1622551718421,1.6424223184585571,,
1622551718422,,-11.604695320129395,-13.850457191467285
1622551718441,2.2421698570251465,,
1622551718442,,-16.67681121826172,-13.945027351379395
1622551718462,0.19033902883529663,-13.778631210327148,-10.60152530670166
1622551718481,-0.14245499670505524,,
1622551718482,,-12.02846908569336,-8.631096839904785
1622551718503,0.8571242094039917,,
1622551718504,,-10.323798179626465,-7.005434036254883
1622551718524,1.8040310144424438,-6.690596580505371,-2.0039467811584473
1622551718541,1.9345149993896484,,
1622551718542,,-3.7014358043670654,-5.154716491699219
1622551718561,2.7712883949279785,,
1622551718562,,-6.391321659088135,0.35913026332855225
1622551718583,10.611102104187012,,
1622551718584,,-14.85362720489502,6.186617374420166
1622551718601,6.354211330413818,,
1622551718602,,-22.874202728271484,-9.437943458557129
1622551718622,1.2198457717895508,-14.507665634155273,4.64594841003418
1622551718641,5.285200119018555,,
1622551718642,,0.6428431272506714,7.5968017578125
1622551718661,7.377732753753662,,
1622551718662,,-2.7030537128448486,5.461174011230469
1622551718681,3.2130186557769775,,
1622551718683,,-10.20887565612793,4.844666957855225
1622551718701,-7.0126166343688965,,
1622551718702,,-19.752164840698242,6.9240312576293945
1622551718723,-10.56800651550293,,
1622551718724,,-18.669984817504883,-0.9205705523490906
1622551718741,-4.479551315307617,,
1622551718742,,-10.383652687072754,-4.240131378173828
1622551718761,2.2661118507385254,,
1622551718762,,-8.878896713256836,-2.474407434463501
1622551718781,4.367023944854736,,-1.0857704877853394
1622551718782,,-8.555679321289062,
1622551718801,3.5039141178131104,,
1622551718802,,-6.93959379196167,0.2406172752380371
1622551718821,2.9233202934265137,,
1622551718822,,-6.418854713439941,-1.1324573755264282
1622551718841,0.8343793153762817,,
1622551718842,,-8.826224327087402,-2.8886044025421143
1622551718861,-1.1994950771331787,,
1622551718862,,-10.81700325012207,-2.1727380752563477
1622551718881,-2.190694570541382,,
1622551718882,,-10.140641212463379,-1.6352397203445435
1622551718901,-1.0546458959579468,,
1622551718902,,-9.062053680419922,-0.9852139949798584
1622551718925,0.8487445116043091,-9.488221168518066,-0.29209262132644653
1622551718941,1.5466543436050415,,
1622551718942,,-9.185355186462402,0.7350199222564697
1622551718961,1.314416766166687,,0.21428105235099792
1622551718962,,-9.727641105651855,
1622551718981,0.8439561128616333,,
1622551718982,,-10.655394554138184,-0.19632454216480255
1622551719001,0.0011971008498221636,,
1622551719002,,-11.176133155822754,-0.44173020124435425
1622551719022,-1.459265947341919,,
1622551719023,,-10.890026092529297,-1.217451572418213
1622551719041,-3.86543869972229,,-0.8032546639442444
1622551719042,,-11.78665542602539,
1622551719061,-3.2381577491760254,-12.786233901977539,-1.602918028831482
1622551719081,0.23582886159420013,-12.484564781188965,-4.885368347167969
1622551719101,1.8136078119277954,-11.587936401367188,-6.531382083892822
1622551719120,-0.06584054976701736,,
1622551719121,,-11.185709953308105,-7.091625213623047
1622551719140,-3.6619315147399902,,
1622551719141,,-13.675680160522461,-4.231751441955566
1622551719160,-3.185485363006592,,
1622551719161,,-14.835670471191406,-4.4292731285095215
1622551719180,0.7960720658302307,,
1622551719181,,-17.22747802734375,1.1492167711257935
1622551719201,7.988254070281982,-15.552734375,6.561309814453125
1622551719220,10.7511625289917,,
1622551719221,,-15.218743324279785,0.004788403399288654
1622551719240,-0.32680854201316833,,
1622551719241,,-13.64455509185791,-1.8291701078414917
1622551719261,-2.7916390895843506,-12.230779647827148,0.047884032130241394
1622551719280,-1.2641384601593018,,
1622551719281,,-11.657367706298828,1.2880805730819702
1622551719300,1.3311761617660522,,
1622551719301,,-9.194931983947754,3.2956185340881348
1622551719323,1.802833914756775,-7.7416510581970215,2.736572504043579
1622551719341,2.389413356781006,-6.914454460144043,1.9105730056762695
1622551719363,2.055422067642212,,
1622551719364,,-5.632359504699707,0.8092401623725891
1622551719381,1.3192051649093628,,
1622551719382,,-4.438849925994873,1.5897499322891235
1622551719401,1.4939818382263184,,
1622551719402,,-3.755305290222168,3.359065055847168
1622551719421,2.390610456466675,,
1622551719422,,-3.141192674636841,3.405751943588257
1622551719441,3.3195607662200928,,
1622551719442,,-2.9305028915405273,2.412158250808716
1622551719461,3.3219549655914307,,
1622551719462,,-3.8139634132385254,0.9169792532920837
1622551719481,3.689464807510376,,
1622551719482,,-6.254851818084717,-3.666719913482666
1622551719502,2.7688941955566406,-10.577583312988281,-9.26915168762207
1622551719521,1.7262194156646729,,
1622551719522,,-14.702792167663574,-11.051634788513184
1622551719541,1.8938134908676147,,
1622551719542,,-10.438719749450684,-8.234856605529785
1622551719561,0.8906430602073669,,
1622551719562,,-9.956287384033203,-5.9100871086120605
1622551719581,0.7314286231994629,,
1622551719582,,-11.346121788024902,-7.01979923248291
1622551719601,0.9744400978088379,,
1622551719602,,-9.898826599121094,-5.698200225830078
1622551719621,1.8602946996688843,,
1622551719622,,-7.175422668457031,-8.501810073852539
1622551719641,5.659893035888672,,
1622551719642,,-11.66574764251709,-0.4034229815006256
1622551719661,8.574832916259766,,
1622551719662,,,1.4245500564575195
1622551719663,,-17.991228103637695,
1622551719681,1.2485761642456055,,
1622551719682,,,-4.035427093505859
1622551719683,,-14.822503089904785,
1622551719701,1.380257248878479,,
1622551719702,,-4.091690540313721,1.0330979824066162
1622551719721,4.832695960998535,,
1622551719722,,-1.2701239585876465,5.228936672210693
1622551719743,6.372167587280273,,
1622551719744,,-4.596867084503174,6.701370716094971
1622551719761,2.741360902786255,,
1622551719762,,-11.080365180969238,3.9863457679748535
1622551719781,-6.957550048828125,,
1622551719782,,-18.198328018188477,3.1076738834381104
1622551719804,-7.870938301086426,-16.995241165161133,-2.428917646408081
1622551719821,-0.25977087020874023,,
1622551719822,,-9.563638687133789,-1.580173134803772
1622551719843,3.7409400939941406,-8.943540573120117,-0.6775590777397156
1622551719861,4.978742599487305,,
1622551719862,,-8.167819023132324,-0.6212953329086304
1622551719881,3.1759085655212402,-7.156269073486328,-0.7745242714881897
1622551719901,0.9361328482627869,,
1622551719902,,-8.000225067138672,-1.6735470294952393
1622551719921,-1.2210428714752197,,
1622551719922,,-9.210494041442871,-1.2665326595306396
1622551719941,-2.0398597717285156,,
1622551719942,,-9.860519409179688,-1.4927847385406494
1622551719961,-0.0802057534456253,,
1622551719962,,,-2.0697872638702393
1622551719963,,-9.314641952514648,
1622551719981,1.2773065567016602,,
1622551719982,,-9.23682975769043,-1.0115501880645752
1622551720002,1.4449007511138916,,
1622551720003,,-9.430760383605957,-0.11252748221158981
1622551720021,1.0223240852355957,,
1622551720023,,-9.247604370117188,0.35075053572654724
1622551720043,0.28730419278144836,,
1622551720044,,-9.524134635925293,0.29209262132644653
1622551720063,0.32680854201316833,,
1622551720064,,-10.393229484558105,-0.19871874153614044
1622551720081,0.5937620401382446,,
1622551720082,,-10.971428871154785,-0.5734112858772278
1622551720103,-2.123656988143921,,-0.5231330990791321
1622551720104,,-11.366472244262695,
1622551720121,-4.37420654296875,,
1622551720122,,-12.412738800048828,-0.811634361743927
1622551720144,-2.8610711097717285,,
1622551720145,,-13.136984825134277,-1.6651673316955566
1622551720161,1.1192892789840698,,
1622551720162,,-12.394782066345215,-3.685873508453369
1622551720182,0.9983820915222168,-10.813411712646484,-5.4013190269470215
1622551720202,-2.2912509441375732,,
1622551720203,,-12.952630996704102,-4.49870491027832
1622551720221,-3.4823663234710693,,
1622551720222,,-16.0112247467041,-3.489548921585083
1622551720243,-0.4465186297893524,,
1622551720244,,-14.106636047363281,-5.732915878295898
1622551720261,4.241328239440918,,
1622551720262,,-13.64455509185791,0.7362170219421387
1622551720281,6.811503887176514,,
1622551720282,,-14.85243034362793,5.336675643920898
1622551720301,8.392873764038086,,
1622551720302,,-14.882357597351074,0.4213795065879822
1622551720324,2.608482837677002,,
1622551720325,,-13.903129577636719,-2.655169725418091
1622551720341,-0.6416460275650024,,
1622551720342,,-12.020090103149414,-0.15682020783424377
1622551720361,0.7481880187988281,,
1622551720362,,-11.8812255859375,0.5722141861915588
1622551720381,2.006340980529785,,
1622551720382,,-10.345345497131348,2.890998601913452
1622551720404,0.933738648891449,-8.17021369934082,3.1196448802948
1622551720421,0.3315969407558441,,
1622551720422,,-7.141903877258301,1.523909330368042
1622551720441,0.49799394607543945,,
1622551720442,,-6.448782444000244,0.47644615173339844
1622551720463,0.7469909191131592,,
1622551720464,,-5.106832027435303,1.37906014919281
1622551720481,1.3431471586227417,,
1622551720482,,-3.513490915298462,3.1974563598632812
1622551720501,2.7772738933563232,,
1622551720502,,-2.4396915435791016,3.179499864578247
1622551720521,3.4763808250427246,,
1622551720522,,-2.691082715988159,2.8215668201446533
1622551720541,4.28322696685791,,
1622551720542,,-3.463212728500366,0.7469909191131592
1622551720561,3.861847400665283,,
1622551720562,,-6.0202202796936035,-3.5182793140411377
1622551720581,2.8407204151153564,,
1622551720582,,-10.35252857208252,-9.677363395690918
1622551720601,-0.019153613597154617,,
1622551720602,,-14.954183578491211,-13.09029769897461
1622551720687,1.3539210557937622,-7.9846625328063965,-3.6391866207122803
1622551725085,10.87446403503418,-16.919822692871094,0.8523358106613159
1622551725133,4.750096321105957,,
1622551725134,,-4.23893404006958,4.3179426193237305
1622551725200,-7.675810813903809,,
1622551725201,,-15.98009967803955,2.232593059539795
1622551725267,2.3702597618103027,-9.364919662475586,-1.9189527034759521
1622551725338,-0.25737667083740234,-8.62630844116211,-1.6196774244308472
1622551725404,0.5937620401382446,,
1622551725405,,-9.436745643615723,-1.7106571197509766
1622551725470,-0.08379705995321274,-9.126696586608887,0.7541735172271729
1622551725535,-0.8607155084609985,,
1622551725536,,-11.626243591308594,-1.2054805755615234
1622551725603,0.7876923680305481,-11.75672721862793,-4.8722004890441895
1622551725668,4.199429988861084,-12.6952543258667,-5.463568210601807
1622551725741,3.663128614425659,-14.902708053588867,-2.2828712463378906
1622551725800,-0.05746084079146385,,
1622551725801,,-9.593565940856934,3.9480385780334473
1622551725820,-0.5674257874488831,,
1622551725821,,-8.455122947692871,3.050212860107422
1622551725840,1.4449007511138916,,
1622551725841,,-7.358579158782959,1.8986018896102905
1622551725861,2.337938070297241,-5.965153694152832,1.1288660764694214
1622551725880,3.0526070594787598,,
1622551725881,,-4.5406036376953125,1.5957354307174683
1622551725900,2.942473888397217,,
1622551725901,,-3.2369606494903564,2.558204412460327
1622551725920,2.292448043823242,,
1622551725921,,-3.1316158771514893,3.248931646347046
1622551725940,2.699462413787842,-3.6727054119110107,2.473210334777832
1622551725960,2.9664158821105957,,
1622551725961,,-3.91092848777771,1.193509578704834
1622551725981,2.8598740100860596,-4.8937482833862305,-0.5973533391952515
1622551726000,2.8850131034851074,-7.856573104858398,-5.917269706726074
1622551726021,0.9600749015808105,-12.970587730407715,-15.322891235351562
1622551726041,0.7733271718025208,-15.024812698364258,-11.341333389282227
1622551726061,0.4058171808719635,,
1622551726062,,-12.11585807800293,-8.541314125061035
1622551726081,0.9576807022094727,,
1622551726082,,-11.774683952331543,-8.202534675598145
1622551726101,1.0749965906143188,,
1622551726102,,-9.051279067993164,-4.261679172515869
1622551726121,2.366668462753296,,
1622551726122,,-5.373785495758057,-5.050568580627441
1622551726142,1.7944542169570923,-5.863399982452393,-1.216254472732544
1622551726161,8.615534782409668,,
1622551726162,,-11.850101470947266,8.176198959350586
1622551726180,11.306617736816406,,
1622551726181,,-19.797653198242188,-3.423708438873291
1622551726201,-1.9692308902740479,,
1622551726202,,-16.427814483642578,-8.857349395751953
1622551726220,0.7661445140838623,,
1622551726221,,-2.651578426361084,5.499481201171875
1622551726241,4.2090067863464355,-2.074575662612915,7.241262912750244
1622551726261,4.617218017578125,-5.858611583709717,6.744466304779053
1622551726281,-0.24660277366638184,,
1622551726282,,-13.236344337463379,5.808333396911621
1622551726304,-9.095572471618652,,
1622551726305,,-19.86229705810547,0.5889736413955688
1622551726322,-5.384559631347656,,
1622551726323,,-11.245565414428711,-4.854243755340576
1622551726341,1.1456254720687866,,
1622551726342,,-9.245209693908691,-3.307589530944824
1622551726361,4.618414878845215,,
1622551726362,,-8.779537200927734,-1.2078747749328613
1622551726381,3.7900211811065674,,
1622551726383,,,0.8595184087753296
1622551726384,,-6.909666061401367,
1622551726402,3.5697548389434814,-6.366182327270508,-0.5518634915351868
1622551726421,1.0546458959579468,,-1.9967641830444336
1622551726422,,-9.080010414123535,
1622551726441,-1.3682862520217896,-10.734403610229492,-1.8722656965255737
1622551726463,-3.317166566848755,,
1622551726464,,-9.888052940368652,-1.43532395362854
1622551726481,-1.7286136150360107,,
1622551726482,,-9.02015495300293,-1.0319008827209473
1622551726501,0.24899697303771973,,
1622551726502,,-9.218873977661133,-1.4903905391693115
1622551726521,0.6248866319656372,,
1622551726522,,-9.435548782348633,-0.5099649429321289
1622551726541,0.6224924325942993,,
1622551726542,,-9.59476375579834,0.5710170865058899
1622551726561,0.3064578175544739,,
1622551726562,,-9.925163269042969,-0.5339069962501526
1622551726582,-0.15442600846290588,,-0.22385786473751068
1622551726583,,-10.11430549621582,
1622551726602,-0.45250412821769714,,-0.5303156971931458
1622551726603,,-10.931924819946289,
1622551726621,-2.273294448852539,,
1622551726622,,-11.739968299865723,-0.5770025849342346
1622551726642,-2.920926094055176,,
1622551726643,,-12.763489723205566,-0.8990227580070496
1622551726664,0.015562310814857483,,
1622551726665,,-12.648567199707031,-2.6408045291900635
1622551726681,1.823184609413147,,
1622551726682,,-11.093533515930176,-5.037400245666504
1622551726702,-0.2059013396501541,-11.238382339477539,-5.9340291023254395
1622551726721,-4.581305027008057,-14.931438446044922,-4.124012470245361
1622551726742,-4.23773717880249,-15.597026824951172,-5.598840713500977
1622551726763,3.095702886581421,,
1622551726764,,-13.905523300170898,-3.1459810733795166
1622551726781,8.56645393371582,,
1622551726782,,-14.987702369689941,5.685031890869141
1622551726802,10.183736801147461,,
1622551726803,,-15.34084701538086,2.5953147411346436
1622551726821,5.808333396911621,,
1622551726822,,-14.686033248901367,-2.522291421890259
1622551726841,-0.8355764150619507,,
1622551726842,,-12.860454559326172,-1.702277421951294
1622551726861,-2.911349296569824,,
1622551726862,,-11.943474769592285,0.2885012924671173
1622551726881,-0.8535329103469849,,
1622551726882,,-11.553220748901367,2.455253839492798
1622551726902,0.8248024582862854,-9.241618156433105,3.26688814163208
1622551726921,0.970848798751831,,
1622551726922,,-7.137115478515625,1.7046716213226318
1622551726944,1.5969325304031372,,0.6955155730247498
1622551726945,,-6.321889400482178,
1622551726964,1.7106571197509766,,1.3862427473068237
1622551726965,,-4.955997467041016,
1622551726982,1.9740192890167236,,
1622551726983,,-4.003105163574219,2.7712883949279785
1622551727001,2.4145524501800537,,
1622551727002,,-3.6296098232269287,3.728969097137451
1622551727021,3.043030261993408,,
1622551727022,,-3.286041736602783,3.1675288677215576
1622551727041,3.357867956161499,,
1622551727042,,-3.5410242080688477,1.8483237028121948
1622551727061,3.4763808250427246,,
1622551727062,,-4.590881824493408,-0.13766659796237946
1622551727081,3.0418331623077393,,-5.097255229949951
1622551727082,,-7.1921820640563965,
1622551727101,1.556231141090393,,
1622551727102,,-12.271480560302734,-14.847641944885254
1622551727121,1.3970166444778442,-16.88869857788086,-11.840524673461914
1622551727141,0.05626374110579491,-12.709619522094727,-9.828198432922363
1622551727160,1.2773065567016602,,
1622551727161,,-9.923966407775879,-7.64109468460083
1622551727181,2.164358377456665,-9.592369079589844,-6.952761650085449
1622551727200,1.5454572439193726,,
1622551727201,,-8.583212852478027,-4.244919776916504
1622551727220,2.9867665767669678,,
1622551727221,,-6.2632317543029785,-9.500192642211914
1622551727241,3.9911341667175293,-14.197615623474121,1.291671872138977
1622551727261,5.996278285980225,-15.561114311218262,3.314772367477417
1622551727281,4.732139587402344,,
1622551727282,,-14.069526672363281,-5.627571105957031
1622551727302,3.550601005554199,-4.3610382080078125,-0.6332663297653198
1622551727321,5.08648157119751,,
1622551727322,,-2.3295583724975586,7.393294811248779
1622551727343,5.377377033233643,,
1622551727344,,-6.244078159332275,7.47230339050293
1622551727364,-0.6260837316513062,-12.843694686889648,4.140771865844727
1622551727384,-9.181763648986816,,3.44765043258667
1622551727385,,-18.95968246459961,
1622551727402,-8.520963668823242,,
1622551727403,,-14.269442558288574,-0.05626374110579491
1622551727422,-2.4025814533233643,,-1.5969325304031372
1622551727423,,-9.967061996459961,
1622551727441,2.668337821960449,,
1622551727442,,-9.533711433410645,-2.404975652694702
1622551727462,5.556941986083984,-9.117119789123535,-2.5989060401916504
1622551727482,4.378994941711426,,-1.0307037830352783
1622551727483,,-7.613561630249023,
1622551727501,2.7006595134735107,,
1622551727502,,-6.825869083404541,-0.790086567401886
1622551727521,-0.9385270476341248,,
1622551727522,,-9.825803756713867,-0.7098808288574219
1622551727544,-2.7688941955566406,-10.820594787597656,-1.3958195447921753
1622551727561,-1.2545616626739502,,
1622551727562,,-9.216479301452637,-2.4396915435791016
1622551727581,0.20111294090747833,,-1.7393875122070312
1622551727582,,-9.035717010498047,
1622551727601,0.6512228846549988,,
1622551727602,,-9.362525939941406,-0.21188685297966003
1622551727621,0.2645592987537384,,0.3423708379268646
1622551727622,,-9.173383712768555,
1622551727640,-0.1604115068912506,,
1622551727641,,-9.847352027893066,0.2669534981250763
1622551727660,-0.023942016065120697,,
1622551727661,,-10.743980407714844,-0.8846575021743774
1622551727680,0.4812345504760742,,
1622551727681,,-11.172542572021484,-0.3902548849582672
1622551727701,0.23582886159420013,,
1622551727702,,-11.125855445861816,-0.5111620426177979
1622551727720,-2.469619035720825,,-0.3315969407558441
1622551727721,,-11.185709953308105,
1622551727740,-2.585737943649292,,
1622551727741,,-12.320562362670898,-0.6428431272506714
1622551727760,0.8571242094039917,,
1622551727761,,-12.312182426452637,-3.1316158771514893
1622551727780,2.428917646408081,-11.109095573425293,-4.176684856414795
1622551727800,-0.5171475410461426,,-4.0761284828186035
1622551727801,,-12.224793434143066,
1622551727821,-5.2265424728393555,-14.915876388549805,-3.598485231399536
1622551727841,-0.8212111592292786,-12.938265800476074,-6.357802391052246
1622551727861,5.456385612487793,,
1622551727862,,-12.76229190826416,-1.1324573755264282
1622551727883,6.657077789306641,-14.987702369689941,4.850652694702148
1622551727902,8.131906509399414,-15.126565933227539,0.9014169573783875
1622551727921,3.669114112854004,-14.205995559692383,-2.6827030181884766
1622551727941,-1.171961784362793,-12.619836807250977,-0.7996633648872375
1622551727961,-0.7541735172271729,,0.4225766062736511
1622551727962,,-12.69286060333252,
1622551727984,0.5351040959358215,,3.162740468978882
1622551727985,,-10.94269847869873,
1622551728001,0.9995791912078857,,2.2625205516815186
1622551728002,,-8.578424453735352,
1622551728021,0.7864952683448792,,
1622551728022,,-7.175422668457031,1.8327614068984985
1622551728041,1.644816517829895,-6.323086738586426,0.6619967818260193
1622551728061,1.5382746458053589,-5.364208698272705,1.0642226934432983
1622551728083,1.5682021379470825,,
1622551728084,,-4.685452938079834,2.8598740100860596
1622551728102,2.426523447036743,,
1622551728103,,-3.9624037742614746,3.0154969692230225
1622551728125,2.9460651874542236,,2.2601263523101807
1622551728126,,-3.5434184074401855,
1622551728141,3.2142157554626465,,
1622551728142,,-3.664325714111328,1.2006921768188477
1622551728161,3.4320881366729736,,
1622551728162,,-4.9799394607543945,-1.0342950820922852
1622551728181,2.9053637981414795,,
1622551728182,,-7.773972988128662,-6.904877662658691
1622551728202,2.0602104663848877,-12.187684059143066,-14.132972717285156
1622551728221,0.4213795065879822,,
1622551728222,,-15.233108520507812,-13.415908813476562
1622551728241,-1.5394717454910278,,
1622551728242,,-13.874399185180664,-10.053253173828125
1622551728261,1.5179238319396973,,
1622551728262,,-12.551602363586426,-9.333795547485352
1622551728285,1.9955670833587646,,-6.676231384277344
1622551728286,,-10.266336441040039,
1622551728302,2.316390037536621,,
1622551728303,,-6.524199485778809,-6.399701118469238
1622551728321,1.4963760375976562,,
1622551728322,,-4.155137062072754,0.6835445761680603
1622551728341,8.549694061279297,,
1622551728342,,-5.161899089813232,7.526173114776611
1622551728361,14.45738697052002,,
1622551728362,,-14.044386863708496,-3.112462282180786
1622551728381,-0.31364041566848755,,
1622551728382,,-23.521835327148438,-8.497021675109863
1622551728401,-1.644816517829895,,
1622551728402,,-4.596867084503174,5.869385242462158
1622551728421,4.10246467590332,-4.698620796203613,5.991489887237549
1622551728440,3.0801405906677246,,
1622551728441,,-7.358579158782959,6.056133270263672
1622551728461,-1.7705121040344238,-13.37281322479248,4.438849925994873
1622551728482,-6.361393928527832,-16.754623413085938,3.554192304611206
1622551728504,-5.872976779937744,-14.306551933288574,-1.5131354331970215
1622551728521,0.16160862147808075,,
1622551728522,,-10.232817649841309,-3.974374771118164
1622551728541,4.1395745277404785,,
1622551728542,,-8.771158218383789,-2.3092074394226074
1622551728564,4.420893669128418,,0.4991910457611084
1622551728565,,-7.292738437652588,
1622551728581,3.980360269546509,,
1622551728582,,-6.066906929016113,-0.41539400815963745
1622551728602,1.2102689743041992,-7.540538311004639,-1.1815385818481445
1622551728621,-1.9716250896453857,,
1622551728622,,-10.475829124450684,-1.2988544702529907
1622551728641,-3.3650505542755127,,
1622551728642,,-10.842142105102539,-2.609679937362671
1622551728661,-1.0007762908935547,,-2.4851813316345215
1622551728662,,-9.982624053955078,
1622551728682,1.049857497215271,,
1622551728683,,-9.217676162719727,-1.2629413604736328
1622551728704,0.9145850539207458,,0.7984662652015686
1622551728705,,-8.81664752960205,
1622551728722,0.7194576263427734,-9.48462963104248,0.9050082564353943
1622551728742,0.08858546614646912,-10.413579940795898,-0.015562310814857483
1622551728761,0.05147533491253853,,-0.2190694510936737
1622551728763,,-10.995370864868164,
1622551728783,-0.27892449498176575,-11.116278648376465,0.5901707410812378
1622551728801,-1.7405846118927002,-11.251550674438477,-1.1097124814987183
1622551728821,-1.6484078168869019,-11.974599838256836,-1.161187767982483
1622551728841,0.3196259140968323,-12.217611312866211,-2.5689783096313477
1622551728861,1.7932571172714233,-11.502942085266113,-4.614823818206787
1622551728881,0.6847416758537292,-10.225635528564453,-5.355829238891602
1622551728901,-2.9005753993988037,,
1622551728902,,-12.804190635681152,-5.949591159820557
1622551728921,-5.480327606201172,,
1622551728922,,-15.112200736999512,-4.071340084075928
1622551728940,-2.4396915435791016,,
1622551728941,,-16.28296661376953,-2.7976245880126953
1622551728960,6.6127848625183105,,
1622551728961,,-14.781801223754883,3.7158010005950928
1622551728983,9.01895809173584,-14.24071216583252,0.12928688526153564
1622551729001,4.042609691619873,-15.026009559631348,-1.9632453918457031
1622551729021,-2.540247917175293,-12.464214324951172,-1.6484078168869019
1622551729041,-2.6659436225891113,,
1622551729042,,-12.033257484436035,0.25019407272338867
1622551729061,-0.5111620426177979,,
1622551729062,,-10.375272750854492,2.564189910888672
1622551729081,1.5765818357467651,,
1622551729082,,-8.431180953979492,2.9712042808532715
1622551729102,2.2361843585968018,,2.4851813316345215
1622551729103,,-7.599195957183838,
1622551729121,2.584540843963623,,
1622551729122,,-7.238868713378906,1.946485996246338
1622551729141,1.902193307876587,,
1622551729142,,-5.886145114898682,1.7932571172714233
1622551729161,1.0307037830352783,,
1622551729162,,-4.424484729766846,1.623268723487854
1622551729185,1.173158884048462,-3.6786909103393555,2.5270798206329346
1622551729201,1.84233820438385,,
1622551729202,,-3.647566318511963,2.850297212600708
1622551729287,2.165555477142334,,-12.465411186218262
1622551729288,,-10.887632369995117,
1622551734087,0.3471592366695404,-12.929885864257812,-8.992621421813965
1622551734134,-1.235408067703247,-9.39365005493164,-2.279279947280884
1622551734200,0.30286651849746704,,
1622551734201,,-9.404424667358398,0.7805097699165344
1622551734267,-1.1001356840133667,-10.491392135620117,0.16519992053508759
1622551734342,1.868674397468567,,
1622551734343,,-11.824962615966797,-4.677073001861572
1622551734354,0.6392518281936646,,-4.903325080871582
1622551734355,,-11.228805541992188,
1622551734374,-3.4560301303863525,-13.710395812988281,-5.295974254608154
1622551734394,-5.963956356048584,,-4.079719543457031
1622551734395,,-15.231911659240723,
1622551734415,-2.313995838165283,,-7.301117897033691
1622551734416,,-14.708778381347656,
1622551734434,5.815515995025635,,-1.404199242591858
1622551734435,,-13.448230743408203,
1622551734454,9.283516883850098,-15.047557830810547,5.0050787925720215
1622551734474,9.793481826782227,,
1622551734475,,-15.348030090332031,1.1408370733261108
1622551734497,2.5067291259765625,-14.329297065734863,-1.866280198097229
1622551734514,-3.075352191925049,,
1622551734515,,-12.757503509521484,0.11133038252592087
1622551734535,-1.98958158493042,-12.246341705322266,0.10175357013940811
1622551734557,0.33279404044151306,,3.2405519485473633
1622551734558,,-10.72602367401123,
1622551734575,1.6101006269454956,-8.438364028930664,2.918531894683838
1622551734595,1.2892776727676392,-7.228095054626465,1.9357120990753174
1622551734616,2.189497470855713,,
1622551734617,,-5.704185485839844,0.9756371974945068
1622551734634,2.3044190406799316,,0.7003039717674255
1622551734635,,-4.018667697906494,
1622551734654,1.723825216293335,,2.0003554821014404
1622551734655,,-3.4093432426452637,
1622551734677,1.824381709098816,-3.6834793090820312,2.977189779281616
1622551734694,2.9484593868255615,,
1622551734695,,-3.957615375518799,2.455253839492798
1622551734714,3.561375141143799,,
1622551734715,,-4.485537052154541,1.235408067703247
1622551734734,3.1747114658355713,,
1622551734735,,-5.377377033233643,-0.4082113802433014
1622551734757,2.5115175247192383,-7.424419403076172,-4.128800868988037
1622551734774,1.6328455209732056,,
1622551734775,,-11.689689636230469,-13.134590148925781
1622551734794,0.05027823522686958,-16.49245834350586,-13.593080520629883
1622551734814,-0.2669534981250763,-13.737929344177246,-10.3549222946167
1622551734834,-0.23343466222286224,-12.089521408081055,-10.043676376342773
1622551734854,0.7733271718025208,,
1622551734855,,-10.715250015258789,-6.9731125831604
1622551734874,1.3670891523361206,-7.210138320922852,-2.406172752380371
1622551734894,2.229001760482788,,
1622551734895,,-4.185064792633057,-4.581305027008057
1622551734914,4.314351558685303,,
1622551734915,,,0.7326257228851318
1622551734916,,-6.7061591148376465,
1622551734934,10.797849655151367,,
1622551734935,,-15.022418975830078,6.692990779876709
1622551734957,6.950367450714111,-24.88892364501953,-8.146271705627441
1622551734975,-5.123591423034668,-13.038822174072266,-5.669469833374023
1622551734995,1.6352397203445435,-1.1528080701828003,7.144298076629639
1622551735014,4.993107795715332,,
1622551735015,,,7.354987621307373
1622551735034,4.405331134796143,,
1622551735035,,-5.257667064666748,4.495113849639893
1622551735055,-1.0330979824066162,-15.579070091247559,6.695384979248047
1622551735075,-7.976283073425293,-21.279664993286133,3.8821980953216553
1622551735097,-7.280767440795898,-12.565967559814453,-4.424484729766846
1622551735115,0.6320692300796509,-9.157821655273438,-3.9659950733184814
1622551735135,4.527435302734375,,-2.8215668201446533
1622551735136,,-8.761581420898438,
1622551735154,3.8965632915496826,,0.026336219161748886
1622551735155,,-6.997054576873779,
1622551735174,2.5785553455352783,,
1622551735175,,-5.8622026443481445,0.751779317855835
1622551735195,-0.5363011956214905,,-2.0039467811584473
1622551735196,,-9.712079048156738,
1622551735215,-1.2497732639312744,,-2.8778305053710938
1622551735216,,-10.765527725219727,
1622551735235,-1.646013617515564,-9.783905029296875,-2.188300371170044
1622551735255,-0.6416460275650024,-9.137471199035645,-1.3958195447921753
1622551735274,0.33039984107017517,,
1622551735275,,-8.889671325683594,-0.507570743560791
1622551735294,0.24181437492370605,,
1622551735295,,-8.802282333374023,1.0809820890426636
1622551735315,0.0347159244120121,-9.897629737854004,0.21308395266532898
1622551735337,0.20709845423698425,,
1622551735338,,-10.808623313903809,-0.6248866319656372
1622551735355,1.3754688501358032,,-1.3204022645950317
1622551735356,,-10.854113578796387,
1622551735374,-0.11851298063993454,,
1622551735375,,-10.438719749450684,-1.4389152526855469
1622551735394,-3.338714361190796,,-0.5039794445037842
1622551735395,,-11.872846603393555,
1622551735414,-2.9316999912261963,,-0.14604631066322327
1622551735415,,-12.70602798461914,
1622551735434,1.0319008827209473,,-4.854243755340576
1622551735435,,-12.27626895904541,
1622551735454,1.290474772453308,,-5.106832027435303
1622551735455,,-11.554417610168457,
1622551735474,-4.3394904136657715,,
1622551735475,,-14.879963874816895,-5.102043628692627
1622551735494,-2.9017724990844727,,
1622551735495,,-16.615758895874023,-6.670246124267578
1622551735515,5.732915878295898,,-2.7676970958709717
1622551735516,,-13.523648262023926,
1622551735534,7.225700855255127,,5.804741859436035
1622551735535,,-14.0264310836792,
1622551735555,7.966706275939941,-14.9182710647583,1.4736311435699463
1622551735575,3.441664934158325,-15.028404235839844,-2.0626046657562256
1622551735594,-2.84790301322937,,
1622551735595,,-13.591882705688477,-1.890222191810608
1622551735617,-2.5486276149749756,-11.963826179504395,0.6009446382522583
1622551735634,0.7529764175415039,,
1622551735635,,-10.882843971252441,2.6156654357910156
1622551735654,2.2577321529388428,,
1622551735655,,-8.96389102935791,3.581725835800171
1622551735674,1.902193307876587,,
1622551735675,,-7.507019519805908,1.780089020729065
1622551735694,1.1288660764694214,,1.6819267272949219
1622551735695,,-6.403292655944824,
1622551735718,1.800439715385437,-4.871003150939941,1.1659762859344482
1622551735734,2.0207061767578125,,
1622551735735,,-3.7445313930511475,1.7094600200653076
1622551735757,2.0602104663848877,,3.667917013168335
1622551735758,,-3.3949780464172363,
1622551735774,2.6563668251037598,,
1622551735775,,-3.575740337371826,3.0801405906677246
1622551735794,3.3028011322021484,,
1622551735795,,-3.822343111038208,1.7274165153503418
1622551735818,3.3638534545898438,-4.359841346740723,0.22026655077934265
1622551735835,2.980781078338623,,
1622551735836,,-6.599617004394531,-3.2166099548339844
1622551735854,2.449268341064453,,
1622551735855,,-10.639832496643066,-14.24190902709961
1622551735874,-0.013168109580874443,,-14.723143577575684
1622551735875,,-17.07305145263672,
1622551735894,-1.5322890281677246,,
1622551735895,,-16.537948608398438,-10.72482681274414
1622551735917,-0.27653029561042786,-12.75870132446289,-10.001777648925781
1622551735935,-0.017956512048840523,-10.588356971740723,-7.5968017578125
1622551735955,0.27653029561042786,,
1622551735956,,-6.603208065032959,-2.5665841102600098
1622551735978,2.1164743900299072,-3.463212728500366,-2.584540843963623
1622551735994,3.2321722507476807,,
1622551735995,,-7.758410453796387,-2.89339280128479
1622551736015,8.699332237243652,-16.350004196166992,3.2848446369171143
1622551736035,8.725667953491211,-18.80046844482422,-3.818751811981201
1622551736055,1.623268723487854,-11.87763500213623,0.7960720658302307
1622551736075,4.298789024353027,-2.230198860168457,7.03057336807251
1622551736095,4.511873245239258,-4.1862616539001465,8.47547435760498
1622551736117,1.0534487962722778,-9.730035781860352,6.439205646514893
1622551736134,-7.049726963043213,,
1622551736135,,-18.1719913482666,5.329493045806885
1622551736157,-9.38167953491211,,
1622551736158,,-17.96010398864746,-0.5961562395095825
1622551736175,-4.4939165115356445,,
1622551736176,,-11.251550674438477,-4.144362926483154
1622551736195,1.9943699836730957,,
1622551736196,,-9.376891136169434,-3.070563793182373
1622551736214,5.30076265335083,,-1.4185645580291748
1622551736215,,-8.429984092712402,
1622551736234,4.533421039581299,-7.058106422424316,-0.47405192255973816
1622551736257,3.4356794357299805,-6.511031627655029,-0.5877765417098999
1622551736277,0.6991068720817566,-8.26239013671875,-0.9289502501487732
1622551736296,-1.8327614068984985,-10.503362655639648,-1.3539210557937622
1622551736314,-2.9328970909118652,,
1622551736315,,-10.26513957977295,-2.346317768096924
1622551736334,-1.1827356815338135,,
1622551736335,,-8.619126319885254,-1.522712230682373
1622551736357,0.7015010714530945,-9.369708061218262,-0.04668693244457245
1622551736377,0.7254431247711182,-9.50857162475586,0.9588778018951416
1622551736395,1.013944387435913,-9.514557838439941,-0.23702596127986908
1622551736414,1.05105459690094,,
1622551736415,,-10.145429611206055,-0.6811503767967224
1622551736435,1.194706678390503,-11.174936294555664,0.14245499670505524
1622551736455,-0.4692635238170624,-11.1474027633667,0.20350714027881622
1622551736475,-3.404554843902588,-11.283872604370117,-0.7493851184844971
1622551736495,-3.7636849880218506,-12.720393180847168,-0.7805097699165344
1622551736516,-1.0905588865280151,-12.987346649169922,-1.8531121015548706
1622551736537,1.4760253429412842,-11.817779541015625,-4.698620796203613
1622551736554,-1.01753568649292,,-6.121973514556885
1622551736555,,-12.203246116638184,
1622551736575,-4.279635429382324,-15.751453399658203,-5.057751178741455
1622551736594,-2.603694438934326,,
1622551736595,,-15.00805377960205,-5.081693172454834
1622551736615,2.316390037536621,-12.386402130126953,-3.3506853580474854
1622551736635,7.790732383728027,,
1622551736636,,-13.979743957519531,5.07451057434082
1622551736655,8.829815864562988,-16.104597091674805,-1.2090718746185303
1622551736674,2.6659436225891113,,
1622551736675,,-14.878766059875488,-3.359065055847168
1622551736695,-2.1583728790283203,,-1.5083470344543457
1622551736696,,-12.676100730895996,
1622551736715,-2.1320366859436035,-12.197260856628418,1.5753847360610962
1622551736734,-0.6129156351089478,,
1622551736735,,-10.11789608001709,3.7181951999664307
1622551736754,0.43335050344467163,,
1622551736755,,-8.068459510803223,2.4217350482940674
1622551736775,0.9636662006378174,,2.1140801906585693
1622551736776,,-7.539340972900391,
1622551736796,2.4887726306915283,,
1622551736797,,-6.465541839599609,0.49320554733276367
1622551736815,2.4145524501800537,,0.9768342971801758
1622551736816,,-4.924872875213623,
1622551736837,2.1475989818573,-3.9252936840057373,2.5115175247192383
1622551736854,1.9165585041046143,,
1622551736855,,-3.5889084339141846,3.271676540374756
1622551736874,2.669534921646118,,3.1651346683502197
1622551736875,,-3.5230677127838135,
1622551736895,3.2812533378601074,-3.7852327823638916,1.7693150043487549
1622551736917,3.4811692237854004,-4.580107688903809,-0.7709329724311829
1622551736934,3.380612850189209,,
1622551736935,,-6.106411457061768,-2.492363929748535
1622551736954,2.1368250846862793,,
1622551736955,,-11.761515617370605,-15.166070938110352
1622551736975,1.4221558570861816,-16.248249053955078,-14.081497192382812
1622551736994,-1.5406688451766968,,
1622551736995,,-15.082273483276367,-10.44470500946045
1622551737015,-0.021547814831137657,,
1622551737016,,-13.286622047424316,-9.26915168762207
1622551737034,0.4692635238170624,,-6.609193801879883
1622551737035,,-10.198101997375488,
1622551737054,2.227804660797119,,
1622551737055,,-6.015431880950928,-2.251746654510498
1622551737074,2.29484224319458,-4.668693542480469,-6.422446250915527
1622551737094,5.190629482269287,-9.965864181518555,7.054515361785889
1622551737114,9.38048267364502,-13.873201370239258,1.216254472732544
1622551737135,5.884947776794434,-19.47323989868164,-11.688492774963379
1622551737156,0.03232172131538391,-6.782773494720459,1.1085153818130493
1622551737176,4.127603530883789,-3.137601375579834,7.444770336151123
1622551737197,5.7556610107421875,-4.935647010803223,6.333860397338867
1622551737217,2.2409727573394775,-9.218873977661133,5.228936672210693
1622551737235,-8.811859130859375,,
1622551737236,,-18.99200439453125,4.124012470245361
1622551737255,-7.004237174987793,-14.364012718200684,-2.737769603729248
1622551737274,-1.2952631711959839,,
1622551737275,,-10.170568466186523,-3.774458885192871
1622551737297,2.7102363109588623,-8.93037223815918,-2.3582887649536133
1622551737315,4.466383457183838,-7.824251174926758,-0.5410895943641663
1622551737337,3.288435935974121,-6.806715488433838,0.10534487664699554
1622551737355,1.3479355573654175,-7.457938194274902,-1.3455413579940796
1622551737377,-1.382651448249817,,
1622551737378,,-10.050858497619629,-1.1635819673538208
1622551737395,-2.7676970958709717,-10.755950927734375,-2.0470423698425293
1622551737415,-1.192312479019165,,-2.4001872539520264
1622551737416,,-9.623494148254395,
1622551737435,0.6548141837120056,-8.973467826843262,-2.0841526985168457
1622551737454,1.745373010635376,,
1622551737455,,-9.040505409240723,-0.3172317147254944
1622551737474,1.1647791862487793,,
1622551737475,,-9.169792175292969,1.0606313943862915
1622551737494,0.47644615173339844,,
1622551737495,,-9.402029991149902,1.3012486696243286
1622551737514,0.4776432514190674,,-0.7960720658302307
1622551737515,,-10.401609420776367,
1622551737537,0.3232172429561615,,
1622551737538,,-11.329362869262695,-0.5602431893348694
1622551737555,-1.9476830959320068,-11.350910186767578,-0.026336219161748886
1622551737575,-3.4763808250427246,,
1622551737576,,-12.075156211853027,-0.5734112858772278
1622551737595,-1.7405846118927002,-12.862848281860352,-1.4688427448272705
1622551737616,0.4967968463897705,-11.973402976989746,-3.6619315147399902
1622551737635,-2.346317768096924,-13.632584571838379,-4.198232650756836
1622551737655,-4.900930881500244,-17.153257369995117,-3.6739025115966797
1622551737675,1.1252747774124146,,-4.98472785949707
1622551737676,,-13.836091995239258,
1622551737695,7.137115478515625,-9.889249801635742,-6.174646377563477
1622551737717,5.382165431976318,-13.115436553955078,2.495955228805542
1622551737736,5.2265424728393555,-15.80173110961914,4.545392036437988
1622551737820,-0.017956512048840523,,
1622551737821,,-11.390414237976074,4.423287868499756
1622551737887,1.6543933153152466,-5.589263916015625,1.0989385843276978
1622551737953,2.920926094055176,,
1622551737954,,-3.5745432376861572,2.7521347999572754
1622551738024,3.1447839736938477,-6.649895191192627,-4.437653064727783
1622551738088,-1.1408370733261108,,
1622551738089,,-13.736732482910156,-9.925163269042969
1622551738158,4.1611223220825195,,-5.57250452041626
1622551738159,,-3.178302764892578,
1622551738222,2.4803929328918457,-17.87271499633789,-9.653421401977539
1622551740087,4.219780445098877,-4.417302131652832,6.238092422485352
1622551740139,4.547786235809326,,-2.9257144927978516
1622551740140,,-8.96269416809082,
1622551740200,-0.7194576263427734,-9.188945770263672,0.5626373887062073
1622551740267,0.5123591423034668,,-0.2322375625371933
1622551740268,,-9.032125473022461,
1622551740334,1.2413935661315918,-10.36449909210205,-1.890222191810608
1622551740404,-3.550601005554199,,-0.5985504388809204
1622551740405,,-11.981781959533691,
1622551740469,1.3443442583084106,,-3.97916316986084
1622551740470,,-11.03128433227539,
1622551740536,4.744110584259033,,-5.652710437774658
1622551740537,,-10.269927978515625,
1622551740601,2.896984100341797,,
1622551740602,,-15.182829856872559,-2.278082847595215
1622551740667,1.039083480834961,-10.099940299987793,3.793612480163574
1622551740735,2.208651065826416,-5.430049419403076,0.35913026332855225
1622551740803,2.6850972175598145,-4.532223701477051,2.072181463241577
1622551740872,2.189497470855713,-7.249642848968506,-7.190984725952148
1622551740935,-0.04189852997660637,,-9.75278091430664
1622551740936,,-13.007698059082031,
1622551741003,1.3910311460494995,-2.5773582458496094,-5.428852558135986
1622551741073,7.600393295288086,,
1622551741074,,-33.61818313598633,-24.7967472076416
1622551741139,5.2672438621521,-2.4205379486083984,7.316680431365967
1622551741204,-8.644265174865723,,
1622551741205,,-17.583017349243164,-0.7876923680305481
1622551741269,3.6739025115966797,,
1622551741270,,-7.053318023681641,1.2198457717895508
1622551741337,-2.4827871322631836,,-1.623268723487854
1622551741338,,-10.6709566116333,
1622551741405,1.05105459690094,,
1622551741406,,-9.32421875,0.08619125932455063
1622551741468,1.138442873954773,,
1622551741469,,-10.639832496643066,-0.6500257849693298
1622551741537,-1.5634137392044067,,
1622551741538,,-13.071144104003906,-1.8974047899246216
1622551741605,-1.5418659448623657,,
1622551741606,,,-7.177816867828369
1622551741671,7.1490864753723145,-15.24986743927002,6.192602634429932
1622551741734,-2.470816135406494,,-0.8451532125473022
1622551741735,,-13.419500350952148,
1622551741800,1.3934253454208374,,
1622551741801,,-8.277952194213867,2.7545289993286133
1622551741868,1.8351556062698364,,
1622551741869,,-4.639962673187256,1.8519150018692017
1622551741937,3.4524388313293457,,1.7178397178649902
1622551741938,,-3.998316764831543,
1622551742001,1.2629413604736328,,-15.188815116882324
1622551742002,,-12.831724166870117,
1622551742070,0.243011474609375,,
1622551742071,,-11.840524673461914,-8.01339340209961
1622551742134,1.114500880241394,,
1622551742135,,-21.19586753845215,-2.3068132400512695
1622551742201,13.397953033447266,,4.63397741317749
1622551742202,,-2.233790159225464,
1622551742268,-12.76229190826416,,
1622551742269,,-19.02432632446289,-4.565742492675781
1622551742335,4.2975921630859375,-8.44554615020752,1.6484078168869019
1622551742404,-2.1057004928588867,-10.219650268554688,-1.823184609413147
1622551742468,1.8543092012405396,,-1.2653355598449707
1622551742469,,-8.560467720031738,
1622551742535,-0.6177040338516235,-9.6989107131958,-0.0011971008498221636
1622551742603,-1.7573440074920654,,-0.3172317147254944
1622551742604,,-11.342530250549316,
1622551742670,1.7202339172363281,,
1622551742671,,-10.69489860534668,-2.408566951751709
1622551742737,-0.849941611289978,,-4.279635429382324
1622551742738,,-12.99931812286377,
1622551742801,5.349843502044678,,
1622551742802,,-13.852850914001465,1.436521053314209
1622551742868,0.8271966576576233,-11.615469932556152,1.2689268589019775
1622551742935,1.2042834758758545,,
1622551742936,,-6.515820026397705,0.1472434103488922
1622551743004,2.0446481704711914,-4.217386245727539,2.495955228805542
1622551743070,2.6898856163024902,,
1622551743071,,-5.187037944793701,-0.013168109580874443
1622551743137,-0.7398083209991455,-15.425841331481934,-11.9027738571167
1622551748090,1.4437036514282227,,
1622551748091,0.7098808288574219,-7.542932510375977,-3.3255462646484375
1622551748134,3.7457284927368164,-3.9444472789764404,2.1152772903442383
1622551748200,1.3563152551651,-7.924807548522949,-7.386112213134766
1622551748267,-1.6747441291809082,-14.912284851074219,-9.400833129882812
1622551748335,0.6775590777397156,-3.1004912853240967,-3.5960910320281982
1622551748401,7.399280548095703,-27.88766098022461,-18.449718475341797
1622551748467,4.878185749053955,,6.563704013824463
1622551748468,,-2.4851813316345215,
1622551748534,-7.879317760467529,-13.18127727508545,-5.080495834350586
1622551748600,3.1519665718078613,-6.410475254058838,0.9217676520347595
1622551748667,-1.5861586332321167,-10.011354446411133,-2.3977930545806885
1622551748734,0.5327098965644836,-9.224859237670898,-0.028730420395731926
1622551748800,-1.6927006244659424,,
1622551748801,,-11.080365180969238,0.07302315533161163
1622551748867,0.6536170840263367,-12.60307788848877,-1.7046716213226318
1622551748934,-5.383362293243408,-16.540342330932617,-3.3219549655914307
1622551749000,8.826224327087402,-14.660894393920898,3.584120035171509
1622551749067,-1.259350061416626,,
1622551749068,,-12.010512351989746,1.0905588865280151
1622551749134,-0.26815059781074524,-8.099584579467773,2.0039467811584473
1622551749201,1.9632453918457031,,
1622551749202,,-4.195838451385498,3.6786909103393555
1622551749268,3.003525972366333,,1.0534487962722778
1622551749269,,-4.273650169372559,
1622551749334,0.4644751250743866,-17.79849624633789,-17.924190521240234
1622551749400,0.04668693244457245,,-4.697423934936523
1622551749401,,-7.6530656814575195,
1622551749468,4.657919406890869,-9.238027572631836,7.716512203216553
1622551749534,1.2186486721038818,-1.5167267322540283,7.128735542297363
1622551749600,-3.869029998779297,,
1622551749601,,-18.611326217651367,8.068459510803223
1622551749667,2.033874273300171,-9.827000617980957,-3.294421434402466
1622551749734,2.6850972175598145,-8.086416244506836,-1.7812861204147339
1622551749801,-0.35075053572654724,-9.23443603515625,-1.382651448249817
1622551749867,-0.849941611289978,,
1622551749868,,-10.226832389831543,0.9002198576927185
1622551749934,-2.074575662612915,-11.852495193481445,-0.2717418968677521
1622551750001,1.157596468925476,-11.00015926361084,-5.036203384399414
1622551750067,2.070984363555908,,
1622551750068,,-12.865242958068848,-4.2078094482421875
1622551750134,2.2577321529388428,-14.654908180236816,-2.920926094055176
1622551750201,1.556231141090393,-9.870096206665039,3.2549171447753906
1622551750268,1.2844891548156738,-5.9088897705078125,0.730231523513794
1622551750336,3.0992941856384277,-3.8810009956359863,3.138798475265503
1622551750401,3.377021551132202,-6.421248912811279,-2.313995838165283
1622551750467,-1.5191209316253662,,
1622551750468,,-14.198813438415527,-9.832986831665039
1622551750534,3.183091163635254,-4.309563159942627,-2.9664158821105957
1622551750601,4.503493309020996,-22.195446014404297,-9.90122127532959
1622551750668,5.627571105957031,-3.3506853580474854,6.862978935241699
1622551750734,-6.111199855804443,-11.857283592224121,-6.050147533416748
1622551750801,3.885789394378662,-6.709750175476074,0.043095629662275314
1622551750868,-2.24935245513916,-9.946710586547852,-1.4544775485992432
1622551750934,0.7661445140838623,-9.59596061706543,-0.3519476354122162
1622551751001,0.4058171808719635,-10.642226219177246,-0.8367735147476196
1622551751067,-2.734178304672241,,-1.095347285270691
1622551751068,,-12.439074516296387,
1622551751134,-0.7661445140838623,-13.145364761352539,-5.3797712326049805
1622551751201,6.896498203277588,-14.132972717285156,2.828749418258667
1622551751268,-2.3989901542663574,-12.91073226928711,-0.43933600187301636
1622551751337,1.2270283699035645,-8.214506149291992,2.4420857429504395
1622551751405,1.7477672100067139,-5.03021764755249,1.647210717201233
1622551751471,3.599682331085205,-4.474762916564941,0.6607996821403503
1622551751534,1.1623848676681519,-10.016142845153809,-8.183381080627441
1622551751600,-1.3886369466781616,,
1622551751601,,-11.674127578735352,-6.021417140960693
1622551751668,3.800795316696167,,
1622551751669,,-4.806359767913818,-4.039018154144287
1622551751734,3.491943120956421,-23.952791213989258,-13.083115577697754
1622551751801,4.371812343597412,-3.178302764892578,6.473921298980713
1622551751867,-5.33547830581665,,
1622551751868,,-12.745532989501953,-6.640318393707275
1622551751934,3.286041736602783,-6.648698329925537,1.3108254671096802
1622551752000,-2.0697872638702393,,
1622551752001,,-9.964667320251465,-1.3934253454208374
1622551752067,1.2246341705322266,-9.476250648498535,-0.4010287821292877
1622551752134,0.29807811975479126,-9.795876502990723,0.45489832758903503
1622551752201,-1.138442873954773,-10.788272857666016,1.4317326545715332
1622551752267,2.363077163696289,,
1622551752268,,-10.936713218688965,-2.1703438758850098
1622551752334,-3.465606927871704,-14.94221305847168,-3.9444472789764404
1622551752400,8.919598579406738,,
1622551752401,,-13.911508560180664,3.7457284927368164
1622551752467,1.50355863571167,,
1622551752468,,-11.385625839233398,-0.8678981065750122
1622551752534,2.161964178085327,-8.093599319458008,1.7741034030914307
1622551752600,1.96683669090271,,
1622551752601,,-6.162675380706787,0.8152256608009338
1622551752667,3.4751837253570557,-6.120776653289795,-1.3778630495071411
1622551752734,-0.9181763529777527,-9.223662376403809,-5.525817394256592
1622551752800,-1.4748282432556152,,
1622551752801,,-11.784260749816895,-5.995080947875977
1622551752870,3.0382418632507324,-8.252813339233398,-3.066972494125366
1622551752936,4.981136798858643,-15.872360229492188,-1.9069817066192627
1622551753005,2.9161376953125,-3.444059133529663,3.3889925479888916
1622551753069,-3.823540210723877,,0.24779987335205078
1622551753070,,-15.131354331970215,
1622551753134,3.690661907196045,-8.938752174377441,0.4034229815006256
1622551753204,-0.4752490520477295,-10.214861869812012,-0.9038111567497253
1622551753269,-0.2298433631658554,-9.466673851013184,0.7122750282287598
1622551753340,1.1073182821273804,-9.822212219238281,-0.8547300100326538
1622551753401,-0.4225766062736511,-9.979032516479492,0.9289502501487732
1622551753468,0.14604631066322327,-9.90361499786377,0.6619967818260193
1622551753534,-0.15921440720558167,-9.888052940368652,0.2298433631658554
1622551753600,0.1388636976480484,,
1622551753601,,-10.120290756225586,0.6129156351089478
1622551753668,-0.26336219906806946,-9.96945571899414,0.727837324142456
1622551753734,0.9469067454338074,-10.502165794372559,0.5602431893348694
1622551753800,2.985569477081299,,0.3208230137825012
1622551753801,,-11.926715850830078,
1622551753867,2.187103271484375,-8.653841972351074,1.721431016921997
1622551753934,3.9695863723754883,-7.636306285858154,1.941697597503662
1622551754001,4.371812343597412,-9.576807022094727,0.9852139949798584
1622551754071,2.1140801906585693,,
1622551754072,,-10.105925559997559,0.2944868206977844
1622551754135,-0.4489128291606903,,
1622551754136,,-9.041702270507812,-1.2557587623596191
1622551754201,1.8602946996688843,-7.91163969039917,-0.11971008777618408
1622551757099,3.914519786834717,,-1.4772224426269531
1622551757100,,-10.126276016235352,3.867832899093628
1622551757134,-5.574898719787598,5.464765548706055,5.6910176277160645
1622551757201,-5.39293909072876,7.38132381439209,5.388150691986084
1622551757267,-3.3267433643341064,7.445967197418213,3.2142157554626465
1622551757335,-3.9588124752044678,,
1622551757336,,4.948814868927002,4.926070213317871
1622551757400,-6.892906665802002,,
1622551757401,,7.175422668457031,6.475118637084961
1622551757469,-2.876633405685425,3.0119056701660156,8.869319915771484
1622551757533,-2.9472622871398926,,
1622551757534,,3.445256233215332,9.873687744140625
1622551757600,-2.558204412460327,,
1622551757601,,3.7181951999664307,11.137825965881348
1622551757667,-0.7158663272857666,1.4257471561431885,12.20803451538086
1622551757734,-1.2533645629882812,2.251746654510498,10.144232749938965
1622551757800,-0.8655039072036743,,
1622551757801,,2.5797524452209473,9.617507934570312
1622551757869,-0.7757213711738586,2.760514497756958,7.296329498291016
1622551757936,-0.30047231912612915,2.5091233253479004,9.828198432922363
1622551758002,-0.033518824726343155,3.420117139816284,7.592013359069824
1622551758067,-1.334767460823059,4.772840976715088,6.898892402648926
1622551758134,-1.2461819648742676,5.258863925933838,9.17817211151123
1622551758200,-1.3611036539077759,,7.202955722808838
1622551758201,,5.453991413116455,
1622551758267,-0.9983820915222168,4.323928356170654,8.598775863647461
1622551758334,0.0035913025494664907,3.620033025741577,8.791508674621582
1622551758401,-0.6655880808830261,3.9851486682891846,8.491036415100098
1622551758472,-0.27413609623908997,,
1622551758473,,3.688267707824707,9.042900085449219
1622551758534,0.6009446382522583,,
1622551758535,,3.6990416049957275,8.528146743774414
1622551758602,0.13168109953403473,3.757699489593506,9.005789756774902
1622551758667,-0.3076549172401428,,
1622551758668,,4.158728122711182,8.728062629699707
1622551758734,0.047884032130241394,4.028244495391846,8.35456657409668
1622551758800,-0.5997475385665894,4.4041337966918945,8.759186744689941
1622551758867,-0.6787561774253845,4.6507368087768555,7.835024833679199
1622551758934,-1.8255788087844849,4.926070213317871,10.012551307678223
1622551759000,-0.6811503767967224,,8.434772491455078
1622551759001,,4.58968448638916,
1622551759067,0.48602294921875,3.954024076461792,7.86614990234375
1622551759134,-0.47165772318840027,4.802768707275391,8.118738174438477
1622551759202,0.31364041566848755,,8.677783966064453
1622551759203,,4.359841346740723,
1622551759267,-1.0007762908935547,4.787206172943115,8.433575630187988
1622551759334,-0.06464344263076782,3.999513864517212,9.315838813781738
1622551759400,-0.42018240690231323,,8.292317390441895
1622551759401,,4.462791919708252,
1622551759467,-0.3064578175544739,4.380191802978516,8.953117370605469
1622551759533,-0.24779987335205078,,
1622551759534,,4.431667327880859,8.678980827331543
1622551759600,-0.3711012601852417,4.480748653411865,8.425195693969727
1622551759667,-0.1412578970193863,4.313154220581055,9.011775016784668
1622551759734,-0.25019407272338867,4.347870349884033,8.621520042419434
1622551759800,-0.2825157940387726,4.36343240737915,8.525752067565918
1622551759867,-0.10654197633266449,,8.329427719116211
1622551759868,,4.389768600463867,
1622551759946,0.013168109580874443,4.255693435668945,8.213309288024902
1622551760124,-0.09457096457481384,,
1622551760125,-0.11013327538967133,4.314351558685303,8.951920509338379
1622551760137,-0.06464344263076782,4.326322555541992,8.78193187713623
1622551760405,-0.18794482946395874,,
1622551760406,-0.038307227194309235,4.322731018066406,8.637083053588867
1622551760467,-0.24420857429504395,,
1622551760468,,4.305971622467041,8.707711219787598
1622551760534,-0.13527239859104156,4.357447147369385,8.683769226074219
1622551760600,0.02753331884741783,,
1622551760676,-0.27054479718208313,4.345476150512695,8.966285705566406
1622551760735,0.16879121959209442,4.108449935913086,8.440757751464844
1622551760808,0.11372458189725876,4.079719543457031,9.091980934143066
1622551760882,0.3208230137825012,4.152742862701416,8.597578048706055
1622551760948,-0.05147533491253853,4.334702014923096,8.438364028930664
1622551761017,-0.8439561128616333,4.819528102874756,7.781155586242676
1622551761079,-0.3818751573562622,4.623203277587891,8.979453086853027
